,workerid,proliferate.condition,accuracy,internal_node_id,question_order,response,rt,stimulus,time_elapsed,trial_index,trial_type,error,local,casual,educated,friendly,dependable,traditional,condition,clip,likert_young,likert_proper,likert_culture,likert_identity
5,87,All,,0.0-4.0-1.0,"[0, 1, 2, 3, 4, 5]","{'local': 3, 'casual': 2, 'educated': 3, 'friendly': 3, 'dependable': 2, 'traditional': 3}",54986.0,audio/NL/NL_07_N.mp3,497316,5,survey-likert,,3.0,2.0,3.0,3.0,2.0,3.0,proper,NL_07,3.0,4.0,4.0,4.0
7,87,All,,0.0-4.0-3.0,"[0, 1, 2, 3, 4, 5]","{'local': 1, 'casual': 2, 'educated': 3, 'friendly': 2, 'dependable': 3, 'traditional': 2}",32032.0,audio/NGN/NGN_10_N.mp3,530897,7,survey-likert,,1.0,2.0,3.0,2.0,3.0,2.0,lazy,NGN_10,3.0,4.0,4.0,4.0
11,87,All,,0.0-4.0-7.0,"[0, 1, 2, 3, 4, 5]","{'local': 1, 'casual': 1, 'educated': 3, 'friendly': 3, 'dependable': 3, 'traditional': 4}",30019.0,audio/NGN/NGN_02_NG.mp3,573554,11,survey-likert,,1.0,1.0,3.0,3.0,3.0,4.0,proper,NGN_02,3.0,4.0,4.0,4.0
13,87,All,,0.0-4.0-9.0,"[0, 1, 2, 3, 4, 5]","{'local': 1, 'casual': 2, 'educated': 2, 'friendly': 1, 'dependable': 2, 'traditional': 1}",18965.0,audio/NL/NL_04_L.mp3,593701,13,survey-likert,,1.0,2.0,2.0,1.0,2.0,1.0,lazy,NL_04,3.0,4.0,4.0,4.0
15,87,All,,0.0-4.0-11.0,"[0, 1, 2, 3, 4, 5]","{'local': 2, 'casual': 3, 'educated': 3, 'friendly': 2, 'dependable': 3, 'traditional': 4}",13130.0,audio/NL/NL_08_N.mp3,608615,15,survey-likert,,2.0,3.0,3.0,2.0,3.0,4.0,proper,NL_08,3.0,4.0,4.0,4.0
19,87,All,,0.0-4.0-15.0,"[0, 1, 2, 3, 4, 5]","{'local': 3, 'casual': 2, 'educated': 3, 'friendly': 2, 'dependable': 2, 'traditional': 4}",20505.0,audio/NL/NL_10_N.mp3,645390,19,survey-likert,,3.0,2.0,3.0,2.0,2.0,4.0,proper,NL_10,3.0,4.0,4.0,4.0
21,87,All,,0.0-4.0-17.0,"[0, 1, 2, 3, 4, 5]","{'local': 3, 'casual': 1, 'educated': 4, 'friendly': 2, 'dependable': 3, 'traditional': 1}",26181.0,audio/NGN/NGN_09_NG.mp3,673147,21,survey-likert,,3.0,1.0,4.0,2.0,3.0,1.0,proper,NGN_09,3.0,4.0,4.0,4.0
25,87,All,,0.0-4.0-21.0,"[0, 1, 2, 3, 4, 5]","{'local': 1, 'casual': 2, 'educated': 2, 'friendly': 3, 'dependable': 2, 'traditional': 2}",30779.0,audio/NGG/NGG_06_NG.mp3,716394,25,survey-likert,,1.0,2.0,2.0,3.0,2.0,2.0,proper,NGG_06,3.0,4.0,4.0,4.0
27,87,All,,0.0-4.0-23.0,"[0, 1, 2, 3, 4, 5]","{'local': 1, 'casual': 4, 'educated': 2, 'friendly': 3, 'dependable': 2, 'traditional': 4}",15790.0,audio/NL/NL_03_N.mp3,733165,27,survey-likert,,1.0,4.0,2.0,3.0,2.0,4.0,proper,NL_03,3.0,4.0,4.0,4.0
29,87,All,,0.0-4.0-25.0,"[0, 1, 2, 3, 4, 5]","{'local': 2, 'casual': 0, 'educated': 3, 'friendly': 2, 'dependable': 3, 'traditional': 3}",15293.0,audio/NGG/NGG_09_NG.mp3,751249,29,survey-likert,,2.0,0.0,3.0,2.0,3.0,3.0,proper,NGG_09,3.0,4.0,4.0,4.0
31,87,All,,0.0-4.0-27.0,"[0, 1, 2, 3, 4, 5]","{'local': 1, 'casual': 3, 'educated': 1, 'friendly': 2, 'dependable': 2, 'traditional': 4}",16517.0,audio/NGG/NGG_03_NG.mp3,769372,31,survey-likert,,1.0,3.0,1.0,2.0,2.0,4.0,proper,NGG_03,3.0,4.0,4.0,4.0
33,87,All,,0.0-4.0-29.0,"[0, 1, 2, 3, 4, 5]","{'local': 2, 'casual': 0, 'educated': 4, 'friendly': 2, 'dependable': 2, 'traditional': 0}",20200.0,audio/NGN/NGN_01_N.mp3,791495,33,survey-likert,,2.0,0.0,4.0,2.0,2.0,0.0,lazy,NGN_01,3.0,4.0,4.0,4.0
35,87,All,,0.0-4.0-31.0,"[0, 1, 2, 3, 4, 5]","{'local': 0, 'casual': 4, 'educated': 1, 'friendly': 1, 'dependable': 1, 'traditional': 1}",23989.0,audio/NGN/NGN_08_N.mp3,817364,35,survey-likert,,0.0,4.0,1.0,1.0,1.0,1.0,lazy,NGN_08,3.0,4.0,4.0,4.0
37,87,All,,0.0-4.0-33.0,"[0, 1, 2, 3, 4, 5]","{'local': 1, 'casual': 1, 'educated': 3, 'friendly': 2, 'dependable': 3, 'traditional': 1}",16820.0,audio/NL/NL_09_L.mp3,835495,37,survey-likert,,1.0,1.0,3.0,2.0,3.0,1.0,lazy,NL_09,3.0,4.0,4.0,4.0
39,87,All,,0.0-4.0-35.0,"[0, 1, 2, 3, 4, 5]","{'local': 3, 'casual': 4, 'educated': 2, 'friendly': 3, 'dependable': 3, 'traditional': 4}",23015.0,audio/NGN/NGN_03_N.mp3,859940,39,survey-likert,,3.0,4.0,2.0,3.0,3.0,4.0,lazy,NGN_03,3.0,4.0,4.0,4.0
41,87,All,,0.0-4.0-37.0,"[0, 1, 2, 3, 4, 5]","{'local': 2, 'casual': 0, 'educated': 3, 'friendly': 2, 'dependable': 3, 'traditional': 0}",15720.0,audio/NL/NL_06_N.mp3,876655,41,survey-likert,,2.0,0.0,3.0,2.0,3.0,0.0,proper,NL_06,3.0,4.0,4.0,4.0
43,87,All,,0.0-4.0-39.0,"[0, 1, 2, 3, 4, 5]","{'local': 1, 'casual': 4, 'educated': 1, 'friendly': 2, 'dependable': 2, 'traditional': 5}",30816.0,audio/NGG/NGG_10_NG.mp3,909892,43,survey-likert,,1.0,4.0,1.0,2.0,2.0,5.0,proper,NGG_10,3.0,4.0,4.0,4.0
45,87,All,,0.0-4.0-41.0,"[0, 1, 2, 3, 4, 5]","{'local': 3, 'casual': 5, 'educated': 3, 'friendly': 4, 'dependable': 3, 'traditional': 5}",18987.0,audio/NL/NL_01_N.mp3,930760,45,survey-likert,,3.0,5.0,3.0,4.0,3.0,5.0,proper,NL_01,3.0,4.0,4.0,4.0
47,87,All,,0.0-4.0-43.0,"[0, 1, 2, 3, 4, 5]","{'local': 1, 'casual': 4, 'educated': 2, 'friendly': 2, 'dependable': 2, 'traditional': 4}",14377.0,audio/NGG/NGG_01_G.mp3,946563,47,survey-likert,,1.0,4.0,2.0,2.0,2.0,4.0,lazy,NGG_01,3.0,4.0,4.0,4.0
49,87,All,,0.0-4.0-45.0,"[0, 1, 2, 3, 4, 5]","{'local': 2, 'casual': 5, 'educated': 3, 'friendly': 3, 'dependable': 3, 'traditional': 5}",15528.0,audio/NL/NL_02_L.mp3,963094,49,survey-likert,,2.0,5.0,3.0,3.0,3.0,5.0,lazy,NL_02,3.0,4.0,4.0,4.0
51,87,All,,0.0-4.0-47.0,"[0, 1, 2, 3, 4, 5]","{'local': 1, 'casual': 4, 'educated': 3, 'friendly': 3, 'dependable': 3, 'traditional': 4}",15139.0,audio/NGG/NGG_02_G.mp3,979425,51,survey-likert,,1.0,4.0,3.0,3.0,3.0,4.0,lazy,NGG_02,3.0,4.0,4.0,4.0
53,87,All,,0.0-4.0-49.0,"[0, 1, 2, 3, 4, 5]","{'local': 1, 'casual': 4, 'educated': 2, 'friendly': 2, 'dependable': 3, 'traditional': 4}",19229.0,audio/NGN/NGN_04_NG.mp3,1000476,53,survey-likert,,1.0,4.0,2.0,2.0,3.0,4.0,proper,NGN_04,3.0,4.0,4.0,4.0
55,87,All,,0.0-4.0-51.0,"[0, 1, 2, 3, 4, 5]","{'local': 2, 'casual': 1, 'educated': 4, 'friendly': 2, 'dependable': 3, 'traditional': 2}",15940.0,audio/NGN/NGN_05_NG.mp3,1018344,55,survey-likert,,2.0,1.0,4.0,2.0,3.0,2.0,proper,NGN_05,3.0,4.0,4.0,4.0
57,87,All,,0.0-4.0-53.0,"[0, 1, 2, 3, 4, 5]","{'local': 1, 'casual': 4, 'educated': 2, 'friendly': 3, 'dependable': 3, 'traditional': 5}",14159.0,audio/NGG/NGG_04_NG.mp3,1033954,57,survey-likert,,1.0,4.0,2.0,3.0,3.0,5.0,proper,NGG_04,3.0,4.0,4.0,4.0
59,87,All,,0.0-4.0-55.0,"[0, 1, 2, 3, 4, 5]","{'local': 2, 'casual': 3, 'educated': 3, 'friendly': 2, 'dependable': 3, 'traditional': 4}",11805.0,audio/NGG/NGG_05_G.mp3,1047021,59,survey-likert,,2.0,3.0,3.0,2.0,3.0,4.0,lazy,NGG_05,3.0,4.0,4.0,4.0
61,87,All,,0.0-4.0-57.0,"[0, 1, 2, 3, 4, 5]","{'local': 3, 'casual': 2, 'educated': 4, 'friendly': 3, 'dependable': 3, 'traditional': 4}",20805.0,audio/NGN/NGN_07_NG.mp3,1069641,61,survey-likert,,3.0,2.0,4.0,3.0,3.0,4.0,proper,NGN_07,3.0,4.0,4.0,4.0
63,87,All,,0.0-4.0-59.0,"[0, 1, 2, 3, 4, 5]","{'local': 3, 'casual': 3, 'educated': 3, 'friendly': 4, 'dependable': 3, 'traditional': 5}",20925.0,audio/NGG/NGG_08_G.mp3,1091940,63,survey-likert,,3.0,3.0,3.0,4.0,3.0,5.0,lazy,NGG_08,3.0,4.0,4.0,4.0
75,61,All,,0.0-4.0-1.0,"[0, 1, 2, 3, 4, 5]","{'local': 5, 'casual': 2, 'educated': 5, 'friendly': 4, 'dependable': 4, 'traditional': 2}",42668.0,audio/NGN/NGN_10_NG.mp3,94613,5,survey-likert,,5.0,2.0,5.0,4.0,4.0,2.0,proper,NGN_10,5.0,0.0,5.0,5.0
79,61,All,,0.0-4.0-5.0,"[0, 1, 2, 3, 4, 5]","{'local': 5, 'casual': 5, 'educated': 5, 'friendly': 5, 'dependable': 4, 'traditional': 0}",14400.0,audio/NL/NL_03_L.mp3,130593,9,survey-likert,,5.0,5.0,5.0,5.0,4.0,0.0,lazy,NL_03,5.0,0.0,5.0,5.0
81,61,All,,0.0-4.0-7.0,"[0, 1, 2, 3, 4, 5]","{'local': 3, 'casual': 0, 'educated': 5, 'friendly': 1, 'dependable': 1, 'traditional': 3}",32179.0,audio/NL/NL_06_L.mp3,163824,11,survey-likert,,3.0,0.0,5.0,1.0,1.0,3.0,lazy,NL_06,5.0,0.0,5.0,5.0
83,61,All,,0.0-4.0-9.0,"[0, 1, 2, 3, 4, 5]","{'local': 5, 'casual': 1, 'educated': 5, 'friendly': 5, 'dependable': 3, 'traditional': 0}",24178.0,audio/NGG/NGG_03_NG.mp3,189522,13,survey-likert,,5.0,1.0,5.0,5.0,3.0,0.0,proper,NGG_03,5.0,0.0,5.0,5.0
85,61,All,,0.0-4.0-11.0,"[0, 1, 2, 3, 4, 5]","{'local': 5, 'casual': 2, 'educated': 5, 'friendly': 4, 'dependable': 4, 'traditional': 1}",27783.0,audio/NL/NL_08_L.mp3,218856,15,survey-likert,,5.0,2.0,5.0,4.0,4.0,1.0,lazy,NL_08,5.0,0.0,5.0,5.0
87,61,All,,0.0-4.0-13.0,"[0, 1, 2, 3, 4, 5]","{'local': 0, 'casual': 1, 'educated': 5, 'friendly': 4, 'dependable': 4, 'traditional': 2}",27689.0,audio/NGN/NGN_07_N.mp3,248315,17,survey-likert,,0.0,1.0,5.0,4.0,4.0,2.0,lazy,NGN_07,5.0,0.0,5.0,5.0
89,61,All,,0.0-4.0-15.0,"[0, 1, 2, 3, 4, 5]","{'local': 5, 'casual': 4, 'educated': 5, 'friendly': 4, 'dependable': 4, 'traditional': 1}",25880.0,audio/NGN/NGN_04_NG.mp3,275945,19,survey-likert,,5.0,4.0,5.0,4.0,4.0,1.0,proper,NGN_04,5.0,0.0,5.0,5.0
91,61,All,,0.0-4.0-17.0,"[0, 1, 2, 3, 4, 5]","{'local': 4, 'casual': 3, 'educated': 5, 'friendly': 5, 'dependable': 3, 'traditional': 0}",22668.0,audio/NL/NL_02_N.mp3,299694,21,survey-likert,,4.0,3.0,5.0,5.0,3.0,0.0,proper,NL_02,5.0,0.0,5.0,5.0
93,61,All,,0.0-4.0-19.0,"[0, 1, 2, 3, 4, 5]","{'local': 4, 'casual': 4, 'educated': 5, 'friendly': 5, 'dependable': 5, 'traditional': 1}",30469.0,audio/NGG/NGG_02_G.mp3,331304,23,survey-likert,,4.0,4.0,5.0,5.0,5.0,1.0,lazy,NGG_02,5.0,0.0,5.0,5.0
95,61,All,,0.0-4.0-21.0,"[0, 1, 2, 3, 4, 5]","{'local': 3, 'casual': 1, 'educated': 5, 'friendly': 4, 'dependable': 4, 'traditional': 1}",30867.0,audio/NGN/NGN_05_NG.mp3,364063,25,survey-likert,,3.0,1.0,5.0,4.0,4.0,1.0,proper,NGN_05,5.0,0.0,5.0,5.0
97,61,All,,0.0-4.0-23.0,"[0, 1, 2, 3, 4, 5]","{'local': 5, 'casual': 0, 'educated': 5, 'friendly': 4, 'dependable': 5, 'traditional': 5}",20436.0,audio/NL/NL_10_N.mp3,386076,27,survey-likert,,5.0,0.0,5.0,4.0,5.0,5.0,proper,NL_10,5.0,0.0,5.0,5.0
99,61,All,,0.0-4.0-25.0,"[0, 1, 2, 3, 4, 5]","{'local': 3, 'casual': 0, 'educated': 5, 'friendly': 3, 'dependable': 3, 'traditional': 5}",17607.0,audio/NGN/NGN_08_NG.mp3,405386,29,survey-likert,,3.0,0.0,5.0,3.0,3.0,5.0,proper,NGN_08,5.0,0.0,5.0,5.0
101,61,All,,0.0-4.0-27.0,"[0, 1, 2, 3, 4, 5]","{'local': 3, 'casual': 0, 'educated': 5, 'friendly': 5, 'dependable': 5, 'traditional': 5}",20158.0,audio/NL/NL_09_N.mp3,426797,31,survey-likert,,3.0,0.0,5.0,5.0,5.0,5.0,proper,NL_09,5.0,0.0,5.0,5.0
105,61,All,,0.0-4.0-31.0,"[0, 1, 2, 3, 4, 5]","{'local': 5, 'casual': 1, 'educated': 5, 'friendly': 5, 'dependable': 5, 'traditional': 2}",15890.0,audio/NGG/NGG_06_NG.mp3,459760,35,survey-likert,,5.0,1.0,5.0,5.0,5.0,2.0,proper,NGG_06,5.0,0.0,5.0,5.0
107,61,All,,0.0-4.0-33.0,"[0, 1, 2, 3, 4, 5]","{'local': 5, 'casual': 0, 'educated': 5, 'friendly': 3, 'dependable': 5, 'traditional': 5}",14607.0,audio/NGG/NGG_09_NG.mp3,477086,37,survey-likert,,5.0,0.0,5.0,3.0,5.0,5.0,proper,NGG_09,5.0,0.0,5.0,5.0
109,61,All,,0.0-4.0-35.0,"[0, 1, 2, 3, 4, 5]","{'local': 5, 'casual': 5, 'educated': 5, 'friendly': 5, 'dependable': 5, 'traditional': 0}",11088.0,audio/NGG/NGG_05_G.mp3,489378,39,survey-likert,,5.0,5.0,5.0,5.0,5.0,0.0,lazy,NGG_05,5.0,0.0,5.0,5.0
111,61,All,,0.0-4.0-37.0,"[0, 1, 2, 3, 4, 5]","{'local': 5, 'casual': 2, 'educated': 5, 'friendly': 5, 'dependable': 5, 'traditional': 2}",16781.0,audio/NGG/NGG_08_NG.mp3,507601,41,survey-likert,,5.0,2.0,5.0,5.0,5.0,2.0,proper,NGG_08,5.0,0.0,5.0,5.0
113,61,All,,0.0-4.0-39.0,"[0, 1, 2, 3, 4, 5]","{'local': 5, 'casual': 3, 'educated': 4, 'friendly': 4, 'dependable': 3, 'traditional': 0}",25084.0,audio/NL/NL_07_L.mp3,533874,43,survey-likert,,5.0,3.0,4.0,4.0,3.0,0.0,lazy,NL_07,5.0,0.0,5.0,5.0
115,61,All,,0.0-4.0-41.0,"[0, 1, 2, 3, 4, 5]","{'local': 3, 'casual': 2, 'educated': 5, 'friendly': 5, 'dependable': 5, 'traditional': 3}",16110.0,audio/NL/NL_04_L.mp3,551139,45,survey-likert,,3.0,2.0,5.0,5.0,5.0,3.0,lazy,NL_04,5.0,0.0,5.0,5.0
117,61,All,,0.0-4.0-43.0,"[0, 1, 2, 3, 4, 5]","{'local': 5, 'casual': 5, 'educated': 5, 'friendly': 5, 'dependable': 5, 'traditional': 0}",12996.0,audio/NGG/NGG_10_G.mp3,565945,47,survey-likert,,5.0,5.0,5.0,5.0,5.0,0.0,lazy,NGG_10,5.0,0.0,5.0,5.0
119,61,All,,0.0-4.0-45.0,"[0, 1, 2, 3, 4, 5]","{'local': 2, 'casual': 0, 'educated': 5, 'friendly': 0, 'dependable': 0, 'traditional': 0}",19722.0,audio/NGG/NGG_04_NG.mp3,587071,49,survey-likert,,2.0,0.0,5.0,0.0,0.0,0.0,proper,NGG_04,5.0,0.0,5.0,5.0
121,61,All,,0.0-4.0-47.0,"[0, 1, 2, 3, 4, 5]","{'local': 5, 'casual': 5, 'educated': 5, 'friendly': 5, 'dependable': 5, 'traditional': 0}",16107.0,audio/NL/NL_01_N.mp3,605017,51,survey-likert,,5.0,5.0,5.0,5.0,5.0,0.0,proper,NL_01,5.0,0.0,5.0,5.0
123,61,All,,0.0-4.0-49.0,"[0, 1, 2, 3, 4, 5]","{'local': 4, 'casual': 0, 'educated': 5, 'friendly': 2, 'dependable': 5, 'traditional': 5}",18608.0,audio/NGN/NGN_01_NG.mp3,625738,53,survey-likert,,4.0,0.0,5.0,2.0,5.0,5.0,proper,NGN_01,5.0,0.0,5.0,5.0
125,61,All,,0.0-4.0-51.0,"[0, 1, 2, 3, 4, 5]","{'local': 5, 'casual': 5, 'educated': 5, 'friendly': 5, 'dependable': 5, 'traditional': 2}",15664.0,audio/NGG/NGG_01_G.mp3,642742,55,survey-likert,,5.0,5.0,5.0,5.0,5.0,2.0,lazy,NGG_01,5.0,0.0,5.0,5.0
127,61,All,,0.0-4.0-53.0,"[0, 1, 2, 3, 4, 5]","{'local': 5, 'casual': 5, 'educated': 5, 'friendly': 5, 'dependable': 5, 'traditional': 0}",11664.0,audio/NGN/NGN_02_N.mp3,655484,57,survey-likert,,5.0,5.0,5.0,5.0,5.0,0.0,lazy,NGN_02,5.0,0.0,5.0,5.0
131,61,All,,0.0-4.0-57.0,"[0, 1, 2, 3, 4, 5]","{'local': 5, 'casual': 0, 'educated': 5, 'friendly': 3, 'dependable': 5, 'traditional': 3}",12600.0,audio/NGN/NGN_09_N.mp3,685225,61,survey-likert,,5.0,0.0,5.0,3.0,5.0,3.0,lazy,NGN_09,5.0,0.0,5.0,5.0
133,61,All,,0.0-4.0-59.0,"[0, 1, 2, 3, 4, 5]","{'local': 5, 'casual': 3, 'educated': 5, 'friendly': 4, 'dependable': 5, 'traditional': 0}",16083.0,audio/NGN/NGN_03_NG.mp3,702672,63,survey-likert,,5.0,3.0,5.0,4.0,5.0,0.0,proper,NGN_03,5.0,0.0,5.0,5.0
145,74,All,,0.0-4.0-1.0,"[0, 1, 2, 3, 4, 5]","{'local': 4, 'casual': 4, 'educated': 3, 'friendly': 3, 'dependable': 3, 'traditional': 3}",15091.0,audio/NGG/NGG_03_NG.mp3,41115,5,survey-likert,,4.0,4.0,3.0,3.0,3.0,3.0,proper,NGG_03,4.0,4.0,4.0,4.0
147,74,All,,0.0-4.0-3.0,"[0, 1, 2, 3, 4, 5]","{'local': 3, 'casual': 3, 'educated': 3, 'friendly': 4, 'dependable': 3, 'traditional': 3}",9340.0,audio/NGN/NGN_03_NG.mp3,51874,7,survey-likert,,3.0,3.0,3.0,4.0,3.0,3.0,proper,NGN_03,4.0,4.0,4.0,4.0
149,74,All,,0.0-4.0-5.0,"[0, 1, 2, 3, 4, 5]","{'local': 3, 'casual': 3, 'educated': 3, 'friendly': 3, 'dependable': 3, 'traditional': 4}",9814.0,audio/NL/NL_03_N.mp3,62675,9,survey-likert,,3.0,3.0,3.0,3.0,3.0,4.0,proper,NL_03,4.0,4.0,4.0,4.0
151,74,All,,0.0-4.0-7.0,"[0, 1, 2, 3, 4, 5]","{'local': 2, 'casual': 4, 'educated': 3, 'friendly': 3, 'dependable': 3, 'traditional': 3}",9286.0,audio/NGN/NGN_05_NG.mp3,73880,11,survey-likert,,2.0,4.0,3.0,3.0,3.0,3.0,proper,NGN_05,4.0,4.0,4.0,4.0
153,74,All,,0.0-4.0-9.0,"[0, 1, 2, 3, 4, 5]","{'local': 2, 'casual': 3, 'educated': 3, 'friendly': 3, 'dependable': 2, 'traditional': 3}",9232.0,audio/NGN/NGN_04_NG.mp3,84936,13,survey-likert,,2.0,3.0,3.0,3.0,2.0,3.0,proper,NGN_04,4.0,4.0,4.0,4.0
155,74,All,,0.0-4.0-11.0,"[0, 1, 2, 3, 4, 5]","{'local': 3, 'casual': 5, 'educated': 3, 'friendly': 3, 'dependable': 3, 'traditional': 3}",18734.0,audio/NL/NL_01_L.mp3,105276,15,survey-likert,,3.0,5.0,3.0,3.0,3.0,3.0,lazy,NL_01,4.0,4.0,4.0,4.0
157,74,All,,0.0-4.0-13.0,"[0, 1, 2, 3, 4, 5]","{'local': 4, 'casual': 3, 'educated': 3, 'friendly': 3, 'dependable': 3, 'traditional': 4}",9641.0,audio/NL/NL_08_N.mp3,116716,17,survey-likert,,4.0,3.0,3.0,3.0,3.0,4.0,proper,NL_08,4.0,4.0,4.0,4.0
159,74,All,,0.0-4.0-15.0,"[0, 1, 2, 3, 4, 5]","{'local': 3, 'casual': 2, 'educated': 3, 'friendly': 3, 'dependable': 2, 'traditional': 3}",8065.0,audio/NL/NL_09_L.mp3,126435,19,survey-likert,,3.0,2.0,3.0,3.0,2.0,3.0,lazy,NL_09,4.0,4.0,4.0,4.0
161,74,All,,0.0-4.0-17.0,"[0, 1, 2, 3, 4, 5]","{'local': 3, 'casual': 4, 'educated': 3, 'friendly': 4, 'dependable': 3, 'traditional': 2}",9760.0,audio/NGG/NGG_08_G.mp3,137561,21,survey-likert,,3.0,4.0,3.0,4.0,3.0,2.0,lazy,NGG_08,4.0,4.0,4.0,4.0
163,74,All,,0.0-4.0-19.0,"[0, 1, 2, 3, 4, 5]","{'local': 3, 'casual': 3, 'educated': 4, 'friendly': 3, 'dependable': 3, 'traditional': 4}",8425.0,audio/NGN/NGN_09_N.mp3,147671,23,survey-likert,,3.0,3.0,4.0,3.0,3.0,4.0,lazy,NGN_09,4.0,4.0,4.0,4.0
165,74,All,,0.0-4.0-21.0,"[0, 1, 2, 3, 4, 5]","{'local': 3, 'casual': 3, 'educated': 4, 'friendly': 3, 'dependable': 3, 'traditional': 4}",9653.0,audio/NGN/NGN_10_NG.mp3,158499,25,survey-likert,,3.0,3.0,4.0,3.0,3.0,4.0,proper,NGN_10,4.0,4.0,4.0,4.0
167,74,All,,0.0-4.0-23.0,"[0, 1, 2, 3, 4, 5]","{'local': 4, 'casual': 4, 'educated': 3, 'friendly': 3, 'dependable': 3, 'traditional': 3}",15169.0,audio/NL/NL_07_L.mp3,174906,27,survey-likert,,4.0,4.0,3.0,3.0,3.0,3.0,lazy,NL_07,4.0,4.0,4.0,4.0
169,74,All,,0.0-4.0-25.0,"[0, 1, 2, 3, 4, 5]","{'local': 2, 'casual': 4, 'educated': 3, 'friendly': 4, 'dependable': 3, 'traditional': 3}",10156.0,audio/NGN/NGN_07_N.mp3,186902,29,survey-likert,,2.0,4.0,3.0,4.0,3.0,3.0,lazy,NGN_07,4.0,4.0,4.0,4.0
171,74,All,,0.0-4.0-27.0,"[0, 1, 2, 3, 4, 5]","{'local': 3, 'casual': 4, 'educated': 3, 'friendly': 4, 'dependable': 3, 'traditional': 3}",8141.0,audio/NGN/NGN_02_N.mp3,196172,31,survey-likert,,3.0,4.0,3.0,4.0,3.0,3.0,lazy,NGN_02,4.0,4.0,4.0,4.0
175,74,All,,0.0-4.0-31.0,"[0, 1, 2, 3, 4, 5]","{'local': 2, 'casual': 4, 'educated': 2, 'friendly': 4, 'dependable': 3, 'traditional': 2}",8952.0,audio/NGG/NGG_04_NG.mp3,218296,35,survey-likert,,2.0,4.0,2.0,4.0,3.0,2.0,proper,NGG_04,4.0,4.0,4.0,4.0
179,74,All,,0.0-4.0-35.0,"[0, 1, 2, 3, 4, 5]","{'local': 4, 'casual': 2, 'educated': 3, 'friendly': 3, 'dependable': 3, 'traditional': 3}",9580.0,audio/NGG/NGG_05_NG.mp3,239581,39,survey-likert,,4.0,2.0,3.0,3.0,3.0,3.0,proper,NGG_05,4.0,4.0,4.0,4.0
181,74,All,,0.0-4.0-37.0,"[0, 1, 2, 3, 4, 5]","{'local': 4, 'casual': 4, 'educated': 3, 'friendly': 3, 'dependable': 3, 'traditional': 2}",10415.0,audio/NL/NL_10_L.mp3,251386,41,survey-likert,,4.0,4.0,3.0,3.0,3.0,2.0,lazy,NL_10,4.0,4.0,4.0,4.0
185,74,All,,0.0-4.0-41.0,"[0, 1, 2, 3, 4, 5]","{'local': 3, 'casual': 3, 'educated': 3, 'friendly': 3, 'dependable': 3, 'traditional': 4}",10312.0,audio/NGN/NGN_08_NG.mp3,275561,45,survey-likert,,3.0,3.0,3.0,3.0,3.0,4.0,proper,NGN_08,4.0,4.0,4.0,4.0
187,74,All,,0.0-4.0-43.0,"[0, 1, 2, 3, 4, 5]","{'local': 4, 'casual': 3, 'educated': 3, 'friendly': 4, 'dependable': 3, 'traditional': 4}",11810.0,audio/NL/NL_06_N.mp3,288409,47,survey-likert,,4.0,3.0,3.0,4.0,3.0,4.0,proper,NL_06,4.0,4.0,4.0,4.0
189,74,All,,0.0-4.0-45.0,"[0, 1, 2, 3, 4, 5]","{'local': 3, 'casual': 3, 'educated': 3, 'friendly': 3, 'dependable': 3, 'traditional': 4}",9436.0,audio/NGG/NGG_06_G.mp3,299509,49,survey-likert,,3.0,3.0,3.0,3.0,3.0,4.0,lazy,NGG_06,4.0,4.0,4.0,4.0
191,74,All,,0.0-4.0-47.0,"[0, 1, 2, 3, 4, 5]","{'local': 4, 'casual': 4, 'educated': 3, 'friendly': 4, 'dependable': 3, 'traditional': 2}",9912.0,audio/NGG/NGG_10_NG.mp3,311734,51,survey-likert,,4.0,4.0,3.0,4.0,3.0,2.0,proper,NGG_10,4.0,4.0,4.0,4.0
193,74,All,,0.0-4.0-49.0,"[0, 1, 2, 3, 4, 5]","{'local': 3, 'casual': 4, 'educated': 3, 'friendly': 4, 'dependable': 3, 'traditional': 3}",7666.0,audio/NL/NL_02_N.mp3,320560,53,survey-likert,,3.0,4.0,3.0,4.0,3.0,3.0,proper,NL_02,4.0,4.0,4.0,4.0
195,74,All,,0.0-4.0-51.0,"[0, 1, 2, 3, 4, 5]","{'local': 3, 'casual': 4, 'educated': 3, 'friendly': 3, 'dependable': 3, 'traditional': 3}",8888.0,audio/NGG/NGG_02_NG.mp3,330786,55,survey-likert,,3.0,4.0,3.0,3.0,3.0,3.0,proper,NGG_02,4.0,4.0,4.0,4.0
197,74,All,,0.0-4.0-53.0,"[0, 1, 2, 3, 4, 5]","{'local': 3, 'casual': 2, 'educated': 3, 'friendly': 3, 'dependable': 3, 'traditional': 4}",9419.0,audio/NGN/NGN_01_N.mp3,342116,57,survey-likert,,3.0,2.0,3.0,3.0,3.0,4.0,lazy,NGN_01,4.0,4.0,4.0,4.0
199,74,All,,0.0-4.0-55.0,"[0, 1, 2, 3, 4, 5]","{'local': 4, 'casual': 4, 'educated': 3, 'friendly': 3, 'dependable': 2, 'traditional': 2}",9230.0,audio/NGG/NGG_01_NG.mp3,352775,59,survey-likert,,4.0,4.0,3.0,3.0,2.0,2.0,proper,NGG_01,4.0,4.0,4.0,4.0
201,74,All,,0.0-4.0-57.0,"[0, 1, 2, 3, 4, 5]","{'local': 4, 'casual': 4, 'educated': 3, 'friendly': 4, 'dependable': 2, 'traditional': 2}",9863.0,audio/NL/NL_04_N.mp3,363916,61,survey-likert,,4.0,4.0,3.0,4.0,2.0,2.0,proper,NL_04,4.0,4.0,4.0,4.0
203,74,All,,0.0-4.0-59.0,"[0, 1, 2, 3, 4, 5]","{'local': 4, 'casual': 2, 'educated': 3, 'friendly': 2, 'dependable': 2, 'traditional': 3}",9165.0,audio/NGG/NGG_09_NG.mp3,375953,63,survey-likert,,4.0,2.0,3.0,2.0,2.0,3.0,proper,NGG_09,4.0,4.0,4.0,4.0
215,86,All,,0.0-4.0-1.0,"[0, 1, 2, 3, 4, 5]","{'local': 0, 'casual': 0, 'educated': 0, 'friendly': 0, 'dependable': 0, 'traditional': 0}",29388.0,audio/NGG/NGG_09_NG.mp3,113266,5,survey-likert,,0.0,0.0,0.0,0.0,0.0,0.0,proper,NGG_09,3.0,3.0,3.0,3.0
217,86,All,,0.0-4.0-3.0,"[0, 1, 2, 3, 4, 5]","{'local': 3, 'casual': 3, 'educated': 3, 'friendly': 3, 'dependable': 3, 'traditional': 3}",42805.0,audio/NL/NL_07_L.mp3,157520,7,survey-likert,,3.0,3.0,3.0,3.0,3.0,3.0,lazy,NL_07,3.0,3.0,3.0,3.0
221,86,All,,0.0-4.0-7.0,"[0, 1, 2, 3, 4, 5]","{'local': 2, 'casual': 2, 'educated': 2, 'friendly': 2, 'dependable': 2, 'traditional': 2}",15485.0,audio/NL/NL_02_L.mp3,183764,11,survey-likert,,2.0,2.0,2.0,2.0,2.0,2.0,lazy,NL_02,3.0,3.0,3.0,3.0
223,86,All,,0.0-4.0-9.0,"[0, 1, 2, 3, 4, 5]","{'local': 3, 'casual': 3, 'educated': 3, 'friendly': 3, 'dependable': 3, 'traditional': 3}",17321.0,audio/NL/NL_08_L.mp3,202710,13,survey-likert,,3.0,3.0,3.0,3.0,3.0,3.0,lazy,NL_08,3.0,3.0,3.0,3.0
225,86,All,,0.0-4.0-11.0,"[0, 1, 2, 3, 4, 5]","{'local': 3, 'casual': 2, 'educated': 2, 'friendly': 2, 'dependable': 2, 'traditional': 2}",17838.0,audio/NGG/NGG_05_G.mp3,221808,15,survey-likert,,3.0,2.0,2.0,2.0,2.0,2.0,lazy,NGG_05,3.0,3.0,3.0,3.0
227,86,All,,0.0-4.0-13.0,"[0, 1, 2, 3, 4, 5]","{'local': 2, 'casual': 2, 'educated': 3, 'friendly': 2, 'dependable': 2, 'traditional': 3}",11506.0,audio/NL/NL_04_L.mp3,234474,17,survey-likert,,2.0,2.0,3.0,2.0,2.0,3.0,lazy,NL_04,3.0,3.0,3.0,3.0
229,86,All,,0.0-4.0-15.0,"[0, 1, 2, 3, 4, 5]","{'local': 2, 'casual': 2, 'educated': 3, 'friendly': 2, 'dependable': 3, 'traditional': 3}",11841.0,audio/NGN/NGN_05_NG.mp3,248227,19,survey-likert,,2.0,2.0,3.0,2.0,3.0,3.0,proper,NGN_05,3.0,3.0,3.0,3.0
231,86,All,,0.0-4.0-17.0,"[0, 1, 2, 3, 4, 5]","{'local': 2, 'casual': 2, 'educated': 2, 'friendly': 3, 'dependable': 2, 'traditional': 2}",17121.0,audio/NGN/NGN_04_NG.mp3,267150,21,survey-likert,,2.0,2.0,2.0,3.0,2.0,2.0,proper,NGN_04,3.0,3.0,3.0,3.0
233,86,All,,0.0-4.0-19.0,"[0, 1, 2, 3, 4, 5]","{'local': 2, 'casual': 3, 'educated': 1, 'friendly': 2, 'dependable': 2, 'traditional': 1}",27190.0,audio/NGG/NGG_04_NG.mp3,295778,23,survey-likert,,2.0,3.0,1.0,2.0,2.0,1.0,proper,NGG_04,3.0,3.0,3.0,3.0
235,86,All,,0.0-4.0-21.0,"[0, 1, 2, 3, 4, 5]","{'local': 3, 'casual': 3, 'educated': 3, 'friendly': 3, 'dependable': 2, 'traditional': 2}",11913.0,audio/NGN/NGN_02_N.mp3,308843,25,survey-likert,,3.0,3.0,3.0,3.0,2.0,2.0,lazy,NGN_02,3.0,3.0,3.0,3.0
237,86,All,,0.0-4.0-23.0,"[0, 1, 2, 3, 4, 5]","{'local': 3, 'casual': 2, 'educated': 2, 'friendly': 2, 'dependable': 3, 'traditional': 3}",10969.0,audio/NL/NL_10_N.mp3,321413,27,survey-likert,,3.0,2.0,2.0,2.0,3.0,3.0,proper,NL_10,3.0,3.0,3.0,3.0
239,86,All,,0.0-4.0-25.0,"[0, 1, 2, 3, 4, 5]","{'local': 2, 'casual': 2, 'educated': 2, 'friendly': 2, 'dependable': 2, 'traditional': 1}",9984.0,audio/NGG/NGG_03_G.mp3,332750,29,survey-likert,,2.0,2.0,2.0,2.0,2.0,1.0,lazy,NGG_03,3.0,3.0,3.0,3.0
241,86,All,,0.0-4.0-27.0,"[0, 1, 2, 3, 4, 5]","{'local': 2, 'casual': 3, 'educated': 3, 'friendly': 2, 'dependable': 2, 'traditional': 3}",13285.0,audio/NGN/NGN_03_NG.mp3,347442,31,survey-likert,,2.0,3.0,3.0,2.0,2.0,3.0,proper,NGN_03,3.0,3.0,3.0,3.0
243,86,All,,0.0-4.0-29.0,"[0, 1, 2, 3, 4, 5]","{'local': 3, 'casual': 2, 'educated': 3, 'friendly': 3, 'dependable': 3, 'traditional': 4}",14573.0,audio/NGN/NGN_09_NG.mp3,363674,33,survey-likert,,3.0,2.0,3.0,3.0,3.0,4.0,proper,NGN_09,3.0,3.0,3.0,3.0
245,86,All,,0.0-4.0-31.0,"[0, 1, 2, 3, 4, 5]","{'local': 3, 'casual': 3, 'educated': 3, 'friendly': 2, 'dependable': 3, 'traditional': 3}",13611.0,audio/NL/NL_06_N.mp3,378253,35,survey-likert,,3.0,3.0,3.0,2.0,3.0,3.0,proper,NL_06,3.0,3.0,3.0,3.0
247,86,All,,0.0-4.0-33.0,"[0, 1, 2, 3, 4, 5]","{'local': 3, 'casual': 4, 'educated': 2, 'friendly': 4, 'dependable': 3, 'traditional': 2}",9953.0,audio/NL/NL_01_L.mp3,389806,37,survey-likert,,3.0,4.0,2.0,4.0,3.0,2.0,lazy,NL_01,3.0,3.0,3.0,3.0
249,86,All,,0.0-4.0-35.0,"[0, 1, 2, 3, 4, 5]","{'local': 3, 'casual': 2, 'educated': 2, 'friendly': 2, 'dependable': 3, 'traditional': 2}",16487.0,audio/NGG/NGG_02_NG.mp3,407881,39,survey-likert,,3.0,2.0,2.0,2.0,3.0,2.0,proper,NGG_02,3.0,3.0,3.0,3.0
251,86,All,,0.0-4.0-37.0,"[0, 1, 2, 3, 4, 5]","{'local': 3, 'casual': 3, 'educated': 3, 'friendly': 3, 'dependable': 3, 'traditional': 3}",9158.0,audio/NL/NL_09_L.mp3,418322,41,survey-likert,,3.0,3.0,3.0,3.0,3.0,3.0,lazy,NL_09,3.0,3.0,3.0,3.0
255,86,All,,0.0-4.0-41.0,"[0, 1, 2, 3, 4, 5]","{'local': 3, 'casual': 2, 'educated': 2, 'friendly': 3, 'dependable': 3, 'traditional': 2}",8211.0,audio/NL/NL_03_L.mp3,437620,45,survey-likert,,3.0,2.0,2.0,3.0,3.0,2.0,lazy,NL_03,3.0,3.0,3.0,3.0
257,86,All,,0.0-4.0-43.0,"[0, 1, 2, 3, 4, 5]","{'local': 2, 'casual': 3, 'educated': 3, 'friendly': 4, 'dependable': 3, 'traditional': 1}",13339.0,audio/NGG/NGG_10_G.mp3,452839,47,survey-likert,,2.0,3.0,3.0,4.0,3.0,1.0,lazy,NGG_10,3.0,3.0,3.0,3.0
259,86,All,,0.0-4.0-45.0,"[0, 1, 2, 3, 4, 5]","{'local': 3, 'casual': 3, 'educated': 2, 'friendly': 2, 'dependable': 3, 'traditional': 2}",15667.0,audio/NGG/NGG_01_NG.mp3,469952,49,survey-likert,,3.0,3.0,2.0,2.0,3.0,2.0,proper,NGG_01,3.0,3.0,3.0,3.0
261,86,All,,0.0-4.0-47.0,"[0, 1, 2, 3, 4, 5]","{'local': 3, 'casual': 3, 'educated': 4, 'friendly': 3, 'dependable': 3, 'traditional': 4}",10494.0,audio/NGN/NGN_07_NG.mp3,482154,51,survey-likert,,3.0,3.0,4.0,3.0,3.0,4.0,proper,NGN_07,3.0,3.0,3.0,3.0
263,86,All,,0.0-4.0-49.0,"[0, 1, 2, 3, 4, 5]","{'local': 3, 'casual': 3, 'educated': 2, 'friendly': 2, 'dependable': 3, 'traditional': 2}",9501.0,audio/NGG/NGG_06_NG.mp3,493363,53,survey-likert,,3.0,3.0,2.0,2.0,3.0,2.0,proper,NGG_06,3.0,3.0,3.0,3.0
267,86,All,,0.0-4.0-53.0,"[0, 1, 2, 3, 4, 5]","{'local': 3, 'casual': 3, 'educated': 2, 'friendly': 3, 'dependable': 3, 'traditional': 2}",10785.0,audio/NGG/NGG_08_NG.mp3,518327,57,survey-likert,,3.0,3.0,2.0,3.0,3.0,2.0,proper,NGG_08,3.0,3.0,3.0,3.0
269,86,All,,0.0-4.0-55.0,"[0, 1, 2, 3, 4, 5]","{'local': 3, 'casual': 3, 'educated': 3, 'friendly': 2, 'dependable': 3, 'traditional': 4}",11370.0,audio/NGN/NGN_10_NG.mp3,530879,59,survey-likert,,3.0,3.0,3.0,2.0,3.0,4.0,proper,NGN_10,3.0,3.0,3.0,3.0
271,86,All,,0.0-4.0-57.0,"[0, 1, 2, 3, 4, 5]","{'local': 3, 'casual': 3, 'educated': 3, 'friendly': 3, 'dependable': 3, 'traditional': 3}",8964.0,audio/NGN/NGN_01_N.mp3,541753,61,survey-likert,,3.0,3.0,3.0,3.0,3.0,3.0,lazy,NGN_01,3.0,3.0,3.0,3.0
273,86,All,,0.0-4.0-59.0,"[0, 1, 2, 3, 4, 5]","{'local': 3, 'casual': 2, 'educated': 2, 'friendly': 2, 'dependable': 3, 'traditional': 2}",9387.0,audio/NGN/NGN_08_N.mp3,552907,63,survey-likert,,3.0,2.0,2.0,2.0,3.0,2.0,lazy,NGN_08,3.0,3.0,3.0,3.0
287,101,All,,0.0-4.0-3.0,"[0, 1, 2, 3, 4, 5]","{'local': 2, 'casual': 4, 'educated': 1, 'friendly': 2, 'dependable': 2, 'traditional': 3}",18670.0,audio/NGG/NGG_05_G.mp3,74109,7,survey-likert,,2.0,4.0,1.0,2.0,2.0,3.0,lazy,NGG_05,4.0,5.0,4.0,4.0
289,101,All,,0.0-4.0-5.0,"[0, 1, 2, 3, 4, 5]","{'local': 1, 'casual': 2, 'educated': 3, 'friendly': 3, 'dependable': 2, 'traditional': 3}",19196.0,audio/NGG/NGG_08_NG.mp3,94798,9,survey-likert,,1.0,2.0,3.0,3.0,2.0,3.0,proper,NGG_08,4.0,5.0,4.0,4.0
291,101,All,,0.0-4.0-7.0,"[0, 1, 2, 3, 4, 5]","{'local': 2, 'casual': 1, 'educated': 4, 'friendly': 2, 'dependable': 2, 'traditional': 4}",16119.0,audio/NGN/NGN_09_N.mp3,112503,11,survey-likert,,2.0,1.0,4.0,2.0,2.0,4.0,lazy,NGN_09,4.0,5.0,4.0,4.0
295,101,All,,0.0-4.0-11.0,"[0, 1, 2, 3, 4, 5]","{'local': 4, 'casual': 4, 'educated': 2, 'friendly': 3, 'dependable': 3, 'traditional': 1}",15822.0,audio/NGG/NGG_02_G.mp3,139315,15,survey-likert,,4.0,4.0,2.0,3.0,3.0,1.0,lazy,NGG_02,4.0,5.0,4.0,4.0
297,101,All,,0.0-4.0-13.0,"[0, 1, 2, 3, 4, 5]","{'local': 4, 'casual': 3, 'educated': 2, 'friendly': 3, 'dependable': 3, 'traditional': 2}",13879.0,audio/NL/NL_04_L.mp3,154395,17,survey-likert,,4.0,3.0,2.0,3.0,3.0,2.0,lazy,NL_04,4.0,5.0,4.0,4.0
299,101,All,,0.0-4.0-15.0,"[0, 1, 2, 3, 4, 5]","{'local': 3, 'casual': 4, 'educated': 2, 'friendly': 4, 'dependable': 3, 'traditional': 1}",13945.0,audio/NGN/NGN_03_N.mp3,169777,19,survey-likert,,3.0,4.0,2.0,4.0,3.0,1.0,lazy,NGN_03,4.0,5.0,4.0,4.0
303,101,All,,0.0-4.0-19.0,"[0, 1, 2, 3, 4, 5]","{'local': 1, 'casual': 1, 'educated': 3, 'friendly': 2, 'dependable': 2, 'traditional': 4}",11902.0,audio/NL/NL_08_N.mp3,193543,23,survey-likert,,1.0,1.0,3.0,2.0,2.0,4.0,proper,NL_08,4.0,5.0,4.0,4.0
305,101,All,,0.0-4.0-21.0,"[0, 1, 2, 3, 4, 5]","{'local': 3, 'casual': 2, 'educated': 3, 'friendly': 2, 'dependable': 2, 'traditional': 3}",14039.0,audio/NL/NL_06_N.mp3,208567,25,survey-likert,,3.0,2.0,3.0,2.0,2.0,3.0,proper,NL_06,4.0,5.0,4.0,4.0
307,101,All,,0.0-4.0-23.0,"[0, 1, 2, 3, 4, 5]","{'local': 4, 'casual': 4, 'educated': 2, 'friendly': 2, 'dependable': 3, 'traditional': 1}",8731.0,audio/NGN/NGN_04_NG.mp3,219194,27,survey-likert,,4.0,4.0,2.0,2.0,3.0,1.0,proper,NGN_04,4.0,5.0,4.0,4.0
309,101,All,,0.0-4.0-25.0,"[0, 1, 2, 3, 4, 5]","{'local': 2, 'casual': 3, 'educated': 3, 'friendly': 2, 'dependable': 3, 'traditional': 4}",15117.0,audio/NGN/NGN_01_N.mp3,236221,29,survey-likert,,2.0,3.0,3.0,2.0,3.0,4.0,lazy,NGN_01,4.0,5.0,4.0,4.0
311,101,All,,0.0-4.0-27.0,"[0, 1, 2, 3, 4, 5]","{'local': 4, 'casual': 4, 'educated': 1, 'friendly': 2, 'dependable': 2, 'traditional': 1}",14735.0,audio/NL/NL_10_N.mp3,252574,31,survey-likert,,4.0,4.0,1.0,2.0,2.0,1.0,proper,NL_10,4.0,5.0,4.0,4.0
313,101,All,,0.0-4.0-29.0,"[0, 1, 2, 3, 4, 5]","{'local': 3, 'casual': 4, 'educated': 1, 'friendly': 2, 'dependable': 2, 'traditional': 1}",11483.0,audio/NL/NL_07_N.mp3,265570,33,survey-likert,,3.0,4.0,1.0,2.0,2.0,1.0,proper,NL_07,4.0,5.0,4.0,4.0
315,101,All,,0.0-4.0-31.0,"[0, 1, 2, 3, 4, 5]","{'local': 3, 'casual': 3, 'educated': 2, 'friendly': 3, 'dependable': 3, 'traditional': 4}",11215.0,audio/NGG/NGG_06_NG.mp3,278207,35,survey-likert,,3.0,3.0,2.0,3.0,3.0,4.0,proper,NGG_06,4.0,5.0,4.0,4.0
317,101,All,,0.0-4.0-33.0,"[0, 1, 2, 3, 4, 5]","{'local': 2, 'casual': 2, 'educated': 2, 'friendly': 2, 'dependable': 2, 'traditional': 4}",8732.0,audio/NGN/NGN_10_NG.mp3,288117,37,survey-likert,,2.0,2.0,2.0,2.0,2.0,4.0,proper,NGN_10,4.0,5.0,4.0,4.0
319,101,All,,0.0-4.0-35.0,"[0, 1, 2, 3, 4, 5]","{'local': 4, 'casual': 4, 'educated': 2, 'friendly': 3, 'dependable': 2, 'traditional': 2}",12387.0,audio/NGG/NGG_03_G.mp3,301861,39,survey-likert,,4.0,4.0,2.0,3.0,2.0,2.0,lazy,NGG_03,4.0,5.0,4.0,4.0
321,101,All,,0.0-4.0-37.0,"[0, 1, 2, 3, 4, 5]","{'local': 0, 'casual': 5, 'educated': 0, 'friendly': 0, 'dependable': 0, 'traditional': 0}",25697.0,audio/NGG/NGG_09_G.mp3,329869,41,survey-likert,,0.0,5.0,0.0,0.0,0.0,0.0,lazy,NGG_09,4.0,5.0,4.0,4.0
323,101,All,,0.0-4.0-39.0,"[0, 1, 2, 3, 4, 5]","{'local': 3, 'casual': 3, 'educated': 2, 'friendly': 2, 'dependable': 2, 'traditional': 3}",10685.0,audio/NL/NL_09_L.mp3,341839,43,survey-likert,,3.0,3.0,2.0,2.0,2.0,3.0,lazy,NL_09,4.0,5.0,4.0,4.0
325,101,All,,0.0-4.0-41.0,"[0, 1, 2, 3, 4, 5]","{'local': 4, 'casual': 4, 'educated': 1, 'friendly': 2, 'dependable': 3, 'traditional': 1}",11840.0,audio/NL/NL_02_N.mp3,354795,45,survey-likert,,4.0,4.0,1.0,2.0,3.0,1.0,proper,NL_02,4.0,5.0,4.0,4.0
327,101,All,,0.0-4.0-43.0,"[0, 1, 2, 3, 4, 5]","{'local': 4, 'casual': 4, 'educated': 1, 'friendly': 3, 'dependable': 3, 'traditional': 1}",9775.0,audio/NGG/NGG_04_G.mp3,365699,47,survey-likert,,4.0,4.0,1.0,3.0,3.0,1.0,lazy,NGG_04,4.0,5.0,4.0,4.0
329,101,All,,0.0-4.0-45.0,"[0, 1, 2, 3, 4, 5]","{'local': 3, 'casual': 2, 'educated': 1, 'friendly': 1, 'dependable': 2, 'traditional': 2}",12684.0,audio/NGG/NGG_10_G.mp3,380513,49,survey-likert,,3.0,2.0,1.0,1.0,2.0,2.0,lazy,NGG_10,4.0,5.0,4.0,4.0
331,101,All,,0.0-4.0-47.0,"[0, 1, 2, 3, 4, 5]","{'local': 3, 'casual': 3, 'educated': 2, 'friendly': 1, 'dependable': 2, 'traditional': 2}",10508.0,audio/NGG/NGG_01_G.mp3,392398,51,survey-likert,,3.0,3.0,2.0,1.0,2.0,2.0,lazy,NGG_01,4.0,5.0,4.0,4.0
333,101,All,,0.0-4.0-49.0,"[0, 1, 2, 3, 4, 5]","{'local': 4, 'casual': 4, 'educated': 2, 'friendly': 3, 'dependable': 3, 'traditional': 1}",9958.0,audio/NGN/NGN_02_N.mp3,403492,53,survey-likert,,4.0,4.0,2.0,3.0,3.0,1.0,lazy,NGN_02,4.0,5.0,4.0,4.0
335,101,All,,0.0-4.0-51.0,"[0, 1, 2, 3, 4, 5]","{'local': 3, 'casual': 4, 'educated': 2, 'friendly': 2, 'dependable': 2, 'traditional': 1}",14977.0,audio/NL/NL_03_L.mp3,419605,55,survey-likert,,3.0,4.0,2.0,2.0,2.0,1.0,lazy,NL_03,4.0,5.0,4.0,4.0
337,101,All,,0.0-4.0-53.0,"[0, 1, 2, 3, 4, 5]","{'local': 4, 'casual': 4, 'educated': 3, 'friendly': 3, 'dependable': 3, 'traditional': 2}",10939.0,audio/NL/NL_01_L.mp3,432146,57,survey-likert,,4.0,4.0,3.0,3.0,3.0,2.0,lazy,NL_01,4.0,5.0,4.0,4.0
339,101,All,,0.0-4.0-55.0,"[0, 1, 2, 3, 4, 5]","{'local': 0, 'casual': 0, 'educated': 4, 'friendly': 1, 'dependable': 3, 'traditional': 5}",10283.0,audio/NGN/NGN_07_N.mp3,444267,59,survey-likert,,0.0,0.0,4.0,1.0,3.0,5.0,lazy,NGN_07,4.0,5.0,4.0,4.0
341,101,All,,0.0-4.0-57.0,"[0, 1, 2, 3, 4, 5]","{'local': 2, 'casual': 3, 'educated': 2, 'friendly': 2, 'dependable': 2, 'traditional': 3}",9126.0,audio/NGN/NGN_08_NG.mp3,455131,61,survey-likert,,2.0,3.0,2.0,2.0,2.0,3.0,proper,NGN_08,4.0,5.0,4.0,4.0
343,101,All,,0.0-4.0-59.0,"[0, 1, 2, 3, 4, 5]","{'local': 1, 'casual': 1, 'educated': 4, 'friendly': 2, 'dependable': 2, 'traditional': 4}",11250.0,audio/NGN/NGN_05_N.mp3,468135,63,survey-likert,,1.0,1.0,4.0,2.0,2.0,4.0,lazy,NGN_05,4.0,5.0,4.0,4.0
355,94,All,,0.0-4.0-1.0,"[0, 1, 2, 3, 4, 5]","{'local': 2, 'casual': 3, 'educated': 2, 'friendly': 2, 'dependable': 3, 'traditional': 2}",33489.0,audio/NGG/NGG_10_G.mp3,62678,5,survey-likert,,2.0,3.0,2.0,2.0,3.0,2.0,lazy,NGG_10,5.0,0.0,5.0,5.0
357,94,All,,0.0-4.0-3.0,"[0, 1, 2, 3, 4, 5]","{'local': 4, 'casual': 4, 'educated': 3, 'friendly': 4, 'dependable': 3, 'traditional': 2}",11603.0,audio/NL/NL_01_L.mp3,75999,7,survey-likert,,4.0,4.0,3.0,4.0,3.0,2.0,lazy,NL_01,5.0,0.0,5.0,5.0
359,94,All,,0.0-4.0-5.0,"[0, 1, 2, 3, 4, 5]","{'local': 3, 'casual': 4, 'educated': 2, 'friendly': 3, 'dependable': 3, 'traditional': 2}",15482.0,audio/NGN/NGN_08_N.mp3,93272,9,survey-likert,,3.0,4.0,2.0,3.0,3.0,2.0,lazy,NGN_08,5.0,0.0,5.0,5.0
361,94,All,,0.0-4.0-7.0,"[0, 1, 2, 3, 4, 5]","{'local': 3, 'casual': 3, 'educated': 2, 'friendly': 3, 'dependable': 2, 'traditional': 2}",15428.0,audio/NGG/NGG_01_NG.mp3,110157,11,survey-likert,,3.0,3.0,2.0,3.0,2.0,2.0,proper,NGG_01,5.0,0.0,5.0,5.0
363,94,All,,0.0-4.0-9.0,"[0, 1, 2, 3, 4, 5]","{'local': 5, 'casual': 3, 'educated': 4, 'friendly': 4, 'dependable': 4, 'traditional': 3}",14536.0,audio/NGN/NGN_05_N.mp3,126460,13,survey-likert,,5.0,3.0,4.0,4.0,4.0,3.0,lazy,NGN_05,5.0,0.0,5.0,5.0
365,94,All,,0.0-4.0-11.0,"[0, 1, 2, 3, 4, 5]","{'local': 5, 'casual': 5, 'educated': 3, 'friendly': 4, 'dependable': 2, 'traditional': 2}",11361.0,audio/NL/NL_02_N.mp3,138986,15,survey-likert,,5.0,5.0,3.0,4.0,2.0,2.0,proper,NL_02,5.0,0.0,5.0,5.0
367,94,All,,0.0-4.0-13.0,"[0, 1, 2, 3, 4, 5]","{'local': 5, 'casual': 5, 'educated': 3, 'friendly': 5, 'dependable': 3, 'traditional': 2}",13101.0,audio/NL/NL_10_L.mp3,153497,17,survey-likert,,5.0,5.0,3.0,5.0,3.0,2.0,lazy,NL_10,5.0,0.0,5.0,5.0
369,94,All,,0.0-4.0-15.0,"[0, 1, 2, 3, 4, 5]","{'local': 5, 'casual': 5, 'educated': 3, 'friendly': 5, 'dependable': 3, 'traditional': 1}",10042.0,audio/NGG/NGG_04_G.mp3,164708,19,survey-likert,,5.0,5.0,3.0,5.0,3.0,1.0,lazy,NGG_04,5.0,0.0,5.0,5.0
371,94,All,,0.0-4.0-17.0,"[0, 1, 2, 3, 4, 5]","{'local': 5, 'casual': 4, 'educated': 3, 'friendly': 4, 'dependable': 4, 'traditional': 2}",15354.0,audio/NGN/NGN_02_N.mp3,181222,21,survey-likert,,5.0,4.0,3.0,4.0,4.0,2.0,lazy,NGN_02,5.0,0.0,5.0,5.0
373,94,All,,0.0-4.0-19.0,"[0, 1, 2, 3, 4, 5]","{'local': 5, 'casual': 4, 'educated': 3, 'friendly': 4, 'dependable': 3, 'traditional': 2}",12459.0,audio/NL/NL_07_N.mp3,194980,23,survey-likert,,5.0,4.0,3.0,4.0,3.0,2.0,proper,NL_07,5.0,0.0,5.0,5.0
375,94,All,,0.0-4.0-21.0,"[0, 1, 2, 3, 4, 5]","{'local': 1, 'casual': 4, 'educated': 1, 'friendly': 2, 'dependable': 2, 'traditional': 2}",16815.0,audio/NGN/NGN_03_NG.mp3,213233,25,survey-likert,,1.0,4.0,1.0,2.0,2.0,2.0,proper,NGN_03,5.0,0.0,5.0,5.0
379,94,All,,0.0-4.0-25.0,"[0, 1, 2, 3, 4, 5]","{'local': 3, 'casual': 3, 'educated': 3, 'friendly': 3, 'dependable': 3, 'traditional': 2}",12409.0,audio/NGG/NGG_02_NG.mp3,242919,29,survey-likert,,3.0,3.0,3.0,3.0,3.0,2.0,proper,NGG_02,5.0,0.0,5.0,5.0
381,94,All,,0.0-4.0-27.0,"[0, 1, 2, 3, 4, 5]","{'local': 3, 'casual': 2, 'educated': 4, 'friendly': 3, 'dependable': 3, 'traditional': 3}",15186.0,audio/NGN/NGN_07_NG.mp3,259843,31,survey-likert,,3.0,2.0,4.0,3.0,3.0,3.0,proper,NGN_07,5.0,0.0,5.0,5.0
383,94,All,,0.0-4.0-29.0,"[0, 1, 2, 3, 4, 5]","{'local': 4, 'casual': 3, 'educated': 3, 'friendly': 4, 'dependable': 4, 'traditional': 2}",13713.0,audio/NL/NL_09_N.mp3,274884,33,survey-likert,,4.0,3.0,3.0,4.0,4.0,2.0,proper,NL_09,5.0,0.0,5.0,5.0
387,94,All,,0.0-4.0-33.0,"[0, 1, 2, 3, 4, 5]","{'local': 4, 'casual': 4, 'educated': 3, 'friendly': 4, 'dependable': 3, 'traditional': 2}",10827.0,audio/NGG/NGG_03_NG.mp3,298479,37,survey-likert,,4.0,4.0,3.0,4.0,3.0,2.0,proper,NGG_03,5.0,0.0,5.0,5.0
389,94,All,,0.0-4.0-35.0,"[0, 1, 2, 3, 4, 5]","{'local': 4, 'casual': 3, 'educated': 3, 'friendly': 4, 'dependable': 4, 'traditional': 3}",15412.0,audio/NGG/NGG_08_G.mp3,315278,39,survey-likert,,4.0,3.0,3.0,4.0,4.0,3.0,lazy,NGG_08,5.0,0.0,5.0,5.0
391,94,All,,0.0-4.0-37.0,"[0, 1, 2, 3, 4, 5]","{'local': 4, 'casual': 2, 'educated': 4, 'friendly': 4, 'dependable': 4, 'traditional': 3}",12199.0,audio/NGN/NGN_09_N.mp3,329153,41,survey-likert,,4.0,2.0,4.0,4.0,4.0,3.0,lazy,NGN_09,5.0,0.0,5.0,5.0
393,94,All,,0.0-4.0-39.0,"[0, 1, 2, 3, 4, 5]","{'local': 5, 'casual': 1, 'educated': 5, 'friendly': 4, 'dependable': 5, 'traditional': 4}",11367.0,audio/NL/NL_08_L.mp3,342148,43,survey-likert,,5.0,1.0,5.0,4.0,5.0,4.0,lazy,NL_08,5.0,0.0,5.0,5.0
395,94,All,,0.0-4.0-41.0,"[0, 1, 2, 3, 4, 5]","{'local': 5, 'casual': 3, 'educated': 3, 'friendly': 4, 'dependable': 4, 'traditional': 2}",12401.0,audio/NL/NL_03_L.mp3,355704,45,survey-likert,,5.0,3.0,3.0,4.0,4.0,2.0,lazy,NL_03,5.0,0.0,5.0,5.0
397,94,All,,0.0-4.0-43.0,"[0, 1, 2, 3, 4, 5]","{'local': 5, 'casual': 3, 'educated': 3, 'friendly': 4, 'dependable': 4, 'traditional': 2}",11257.0,audio/NGN/NGN_04_NG.mp3,368927,47,survey-likert,,5.0,3.0,3.0,4.0,4.0,2.0,proper,NGN_04,5.0,0.0,5.0,5.0
399,94,All,,0.0-4.0-45.0,"[0, 1, 2, 3, 4, 5]","{'local': 3, 'casual': 1, 'educated': 4, 'friendly': 3, 'dependable': 3, 'traditional': 4}",15010.0,audio/NL/NL_06_N.mp3,384926,49,survey-likert,,3.0,1.0,4.0,3.0,3.0,4.0,proper,NL_06,5.0,0.0,5.0,5.0
401,94,All,,0.0-4.0-47.0,"[0, 1, 2, 3, 4, 5]","{'local': 3, 'casual': 2, 'educated': 4, 'friendly': 4, 'dependable': 4, 'traditional': 4}",14360.0,audio/NGN/NGN_01_NG.mp3,401408,51,survey-likert,,3.0,2.0,4.0,4.0,4.0,4.0,proper,NGN_01,5.0,0.0,5.0,5.0
403,94,All,,0.0-4.0-49.0,"[0, 1, 2, 3, 4, 5]","{'local': 3, 'casual': 2, 'educated': 3, 'friendly': 3, 'dependable': 3, 'traditional': 2}",14667.0,audio/NGG/NGG_06_NG.mp3,417516,53,survey-likert,,3.0,2.0,3.0,3.0,3.0,2.0,proper,NGG_06,5.0,0.0,5.0,5.0
405,94,All,,0.0-4.0-51.0,"[0, 1, 2, 3, 4, 5]","{'local': 3, 'casual': 2, 'educated': 3, 'friendly': 3, 'dependable': 3, 'traditional': 2}",13735.0,audio/NL/NL_04_L.mp3,432435,55,survey-likert,,3.0,2.0,3.0,3.0,3.0,2.0,lazy,NL_04,5.0,0.0,5.0,5.0
407,94,All,,0.0-4.0-53.0,"[0, 1, 2, 3, 4, 5]","{'local': 4, 'casual': 3, 'educated': 3, 'friendly': 4, 'dependable': 4, 'traditional': 2}",25846.0,audio/NGG/NGG_05_NG.mp3,459976,57,survey-likert,,4.0,3.0,3.0,4.0,4.0,2.0,proper,NGG_05,5.0,0.0,5.0,5.0
411,94,All,,0.0-4.0-57.0,"[0, 1, 2, 3, 4, 5]","{'local': 5, 'casual': 1, 'educated': 5, 'friendly': 4, 'dependable': 5, 'traditional': 3}",10282.0,audio/NGN/NGN_10_NG.mp3,482823,61,survey-likert,,5.0,1.0,5.0,4.0,5.0,3.0,proper,NGN_10,5.0,0.0,5.0,5.0
413,94,All,,0.0-4.0-59.0,"[0, 1, 2, 3, 4, 5]","{'local': 3, 'casual': 2, 'educated': 2, 'friendly': 2, 'dependable': 3, 'traditional': 2}",16457.0,audio/NGG/NGG_09_NG.mp3,502093,63,survey-likert,,3.0,2.0,2.0,2.0,3.0,2.0,proper,NGG_09,5.0,0.0,5.0,5.0
425,103,All,,0.0-4.0-1.0,"[0, 1, 2, 3, 4, 5]","{'local': 3, 'casual': 3, 'educated': 3, 'friendly': 3, 'dependable': 3, 'traditional': 3}",23194.0,audio/NGG/NGG_01_NG.mp3,72958,5,survey-likert,,3.0,3.0,3.0,3.0,3.0,3.0,proper,NGG_01,5.0,2.0,5.0,5.0
427,103,All,,0.0-4.0-3.0,"[0, 1, 2, 3, 4, 5]","{'local': 2, 'casual': 3, 'educated': 3, 'friendly': 3, 'dependable': 3, 'traditional': 3}",13277.0,audio/NGN/NGN_07_NG.mp3,87944,7,survey-likert,,2.0,3.0,3.0,3.0,3.0,3.0,proper,NGN_07,5.0,2.0,5.0,5.0
429,103,All,,0.0-4.0-5.0,"[0, 1, 2, 3, 4, 5]","{'local': 2, 'casual': 4, 'educated': 3, 'friendly': 3, 'dependable': 3, 'traditional': 3}",10626.0,audio/NL/NL_03_L.mp3,99722,9,survey-likert,,2.0,4.0,3.0,3.0,3.0,3.0,lazy,NL_03,5.0,2.0,5.0,5.0
431,103,All,,0.0-4.0-7.0,"[0, 1, 2, 3, 4, 5]","{'local': 1, 'casual': 2, 'educated': 2, 'friendly': 3, 'dependable': 2, 'traditional': 2}",12358.0,audio/NGG/NGG_09_G.mp3,114362,11,survey-likert,,1.0,2.0,2.0,3.0,2.0,2.0,lazy,NGG_09,5.0,2.0,5.0,5.0
433,103,All,,0.0-4.0-9.0,"[0, 1, 2, 3, 4, 5]","{'local': 4, 'casual': 4, 'educated': 2, 'friendly': 4, 'dependable': 3, 'traditional': 3}",16898.0,audio/NL/NL_02_N.mp3,132375,13,survey-likert,,4.0,4.0,2.0,4.0,3.0,3.0,proper,NL_02,5.0,2.0,5.0,5.0
435,103,All,,0.0-4.0-11.0,"[0, 1, 2, 3, 4, 5]","{'local': 1, 'casual': 3, 'educated': 3, 'friendly': 3, 'dependable': 2, 'traditional': 2}",14036.0,audio/NGN/NGN_01_N.mp3,148323,15,survey-likert,,1.0,3.0,3.0,3.0,2.0,2.0,lazy,NGN_01,5.0,2.0,5.0,5.0
437,103,All,,0.0-4.0-13.0,"[0, 1, 2, 3, 4, 5]","{'local': 3, 'casual': 3, 'educated': 3, 'friendly': 3, 'dependable': 3, 'traditional': 3}",13310.0,audio/NGG/NGG_05_G.mp3,162915,17,survey-likert,,3.0,3.0,3.0,3.0,3.0,3.0,lazy,NGG_05,5.0,2.0,5.0,5.0
439,103,All,,0.0-4.0-15.0,"[0, 1, 2, 3, 4, 5]","{'local': 4, 'casual': 4, 'educated': 3, 'friendly': 3, 'dependable': 3, 'traditional': 3}",8737.0,audio/NGG/NGG_08_NG.mp3,173164,19,survey-likert,,4.0,4.0,3.0,3.0,3.0,3.0,proper,NGG_08,5.0,2.0,5.0,5.0
443,103,All,,0.0-4.0-19.0,"[0, 1, 2, 3, 4, 5]","{'local': 4, 'casual': 4, 'educated': 3, 'friendly': 3, 'dependable': 3, 'traditional': 3}",8835.0,audio/NL/NL_09_L.mp3,195531,23,survey-likert,,4.0,4.0,3.0,3.0,3.0,3.0,lazy,NL_09,5.0,2.0,5.0,5.0
445,103,All,,0.0-4.0-21.0,"[0, 1, 2, 3, 4, 5]","{'local': 4, 'casual': 3, 'educated': 3, 'friendly': 3, 'dependable': 3, 'traditional': 3}",12024.0,audio/NGG/NGG_02_NG.mp3,208879,25,survey-likert,,4.0,3.0,3.0,3.0,3.0,3.0,proper,NGG_02,5.0,2.0,5.0,5.0
447,103,All,,0.0-4.0-23.0,"[0, 1, 2, 3, 4, 5]","{'local': 2, 'casual': 3, 'educated': 3, 'friendly': 3, 'dependable': 2, 'traditional': 2}",10889.0,audio/NGN/NGN_10_N.mp3,221236,27,survey-likert,,2.0,3.0,3.0,3.0,2.0,2.0,lazy,NGN_10,5.0,2.0,5.0,5.0
451,103,All,,0.0-4.0-27.0,"[0, 1, 2, 3, 4, 5]","{'local': 4, 'casual': 4, 'educated': 3, 'friendly': 4, 'dependable': 4, 'traditional': 4}",9932.0,audio/NGN/NGN_02_N.mp3,246456,31,survey-likert,,4.0,4.0,3.0,4.0,4.0,4.0,lazy,NGN_02,5.0,2.0,5.0,5.0
453,103,All,,0.0-4.0-29.0,"[0, 1, 2, 3, 4, 5]","{'local': 4, 'casual': 2, 'educated': 4, 'friendly': 3, 'dependable': 4, 'traditional': 4}",11373.0,audio/NL/NL_04_N.mp3,258769,33,survey-likert,,4.0,2.0,4.0,3.0,4.0,4.0,proper,NL_04,5.0,2.0,5.0,5.0
455,103,All,,0.0-4.0-31.0,"[0, 1, 2, 3, 4, 5]","{'local': 2, 'casual': 3, 'educated': 3, 'friendly': 3, 'dependable': 3, 'traditional': 3}",9839.0,audio/NL/NL_06_N.mp3,269575,35,survey-likert,,2.0,3.0,3.0,3.0,3.0,3.0,proper,NL_06,5.0,2.0,5.0,5.0
457,103,All,,0.0-4.0-33.0,"[0, 1, 2, 3, 4, 5]","{'local': 4, 'casual': 4, 'educated': 3, 'friendly': 3, 'dependable': 4, 'traditional': 3}",12671.0,audio/NL/NL_08_N.mp3,284007,37,survey-likert,,4.0,4.0,3.0,3.0,4.0,3.0,proper,NL_08,5.0,2.0,5.0,5.0
459,103,All,,0.0-4.0-35.0,"[0, 1, 2, 3, 4, 5]","{'local': 3, 'casual': 5, 'educated': 2, 'friendly': 3, 'dependable': 3, 'traditional': 3}",9866.0,audio/NGG/NGG_04_G.mp3,295012,39,survey-likert,,3.0,5.0,2.0,3.0,3.0,3.0,lazy,NGG_04,5.0,2.0,5.0,5.0
461,103,All,,0.0-4.0-37.0,"[0, 1, 2, 3, 4, 5]","{'local': 2, 'casual': 3, 'educated': 3, 'friendly': 3, 'dependable': 3, 'traditional': 3}",9155.0,audio/NGN/NGN_08_NG.mp3,305920,41,survey-likert,,2.0,3.0,3.0,3.0,3.0,3.0,proper,NGN_08,5.0,2.0,5.0,5.0
465,103,All,,0.0-4.0-41.0,"[0, 1, 2, 3, 4, 5]","{'local': 1, 'casual': 3, 'educated': 3, 'friendly': 3, 'dependable': 3, 'traditional': 2}",8077.0,audio/NL/NL_07_N.mp3,328883,45,survey-likert,,1.0,3.0,3.0,3.0,3.0,2.0,proper,NL_07,5.0,2.0,5.0,5.0
467,103,All,,0.0-4.0-43.0,"[0, 1, 2, 3, 4, 5]","{'local': 3, 'casual': 3, 'educated': 4, 'friendly': 3, 'dependable': 3, 'traditional': 3}",18254.0,audio/NGN/NGN_09_N.mp3,348739,47,survey-likert,,3.0,3.0,4.0,3.0,3.0,3.0,lazy,NGN_09,5.0,2.0,5.0,5.0
469,103,All,,0.0-4.0-45.0,"[0, 1, 2, 3, 4, 5]","{'local': 4, 'casual': 4, 'educated': 3, 'friendly': 3, 'dependable': 3, 'traditional': 3}",12272.0,audio/NL/NL_01_N.mp3,362912,49,survey-likert,,4.0,4.0,3.0,3.0,3.0,3.0,proper,NL_01,5.0,2.0,5.0,5.0
471,103,All,,0.0-4.0-47.0,"[0, 1, 2, 3, 4, 5]","{'local': 2, 'casual': 3, 'educated': 3, 'friendly': 3, 'dependable': 3, 'traditional': 3}",10863.0,audio/NL/NL_10_N.mp3,375378,51,survey-likert,,2.0,3.0,3.0,3.0,3.0,3.0,proper,NL_10,5.0,2.0,5.0,5.0
473,103,All,,0.0-4.0-49.0,"[0, 1, 2, 3, 4, 5]","{'local': 2, 'casual': 4, 'educated': 3, 'friendly': 4, 'dependable': 3, 'traditional': 3}",10107.0,audio/NGG/NGG_03_NG.mp3,387043,53,survey-likert,,2.0,4.0,3.0,4.0,3.0,3.0,proper,NGG_03,5.0,2.0,5.0,5.0
475,103,All,,0.0-4.0-51.0,"[0, 1, 2, 3, 4, 5]","{'local': 2, 'casual': 3, 'educated': 3, 'friendly': 3, 'dependable': 3, 'traditional': 3}",7766.0,audio/NGN/NGN_03_NG.mp3,396212,55,survey-likert,,2.0,3.0,3.0,3.0,3.0,3.0,proper,NGN_03,5.0,2.0,5.0,5.0
477,103,All,,0.0-4.0-53.0,"[0, 1, 2, 3, 4, 5]","{'local': 3, 'casual': 4, 'educated': 3, 'friendly': 3, 'dependable': 3, 'traditional': 3}",7482.0,audio/NGN/NGN_04_NG.mp3,405558,57,survey-likert,,3.0,4.0,3.0,3.0,3.0,3.0,proper,NGN_04,5.0,2.0,5.0,5.0
479,103,All,,0.0-4.0-55.0,"[0, 1, 2, 3, 4, 5]","{'local': 3, 'casual': 4, 'educated': 3, 'friendly': 2, 'dependable': 3, 'traditional': 3}",11683.0,audio/NGG/NGG_10_G.mp3,419117,59,survey-likert,,3.0,4.0,3.0,2.0,3.0,3.0,lazy,NGG_10,5.0,2.0,5.0,5.0
481,103,All,,0.0-4.0-57.0,"[0, 1, 2, 3, 4, 5]","{'local': 2, 'casual': 3, 'educated': 3, 'friendly': 4, 'dependable': 3, 'traditional': 3}",10035.0,audio/NGG/NGG_06_NG.mp3,430558,61,survey-likert,,2.0,3.0,3.0,4.0,3.0,3.0,proper,NGG_06,5.0,2.0,5.0,5.0
483,103,All,,0.0-4.0-59.0,"[0, 1, 2, 3, 4, 5]","{'local': 2, 'casual': 4, 'educated': 3, 'friendly': 3, 'dependable': 3, 'traditional': 3}",10038.0,audio/NGN/NGN_05_NG.mp3,442524,63,survey-likert,,2.0,4.0,3.0,3.0,3.0,3.0,proper,NGN_05,5.0,2.0,5.0,5.0
495,107,All,,0.0-4.0-1.0,"[0, 1, 2, 3, 4, 5]","{'local': 4, 'casual': 0, 'educated': 3, 'friendly': 2, 'dependable': 3, 'traditional': 4}",64993.0,audio/NL/NL_09_L.mp3,119800,5,survey-likert,,4.0,0.0,3.0,2.0,3.0,4.0,lazy,NL_09,3.0,3.0,5.0,3.0
497,107,All,,0.0-4.0-3.0,"[0, 1, 2, 3, 4, 5]","{'local': 4, 'casual': 1, 'educated': 3, 'friendly': 4, 'dependable': 4, 'traditional': 4}",16361.0,audio/NGG/NGG_01_G.mp3,137594,7,survey-likert,,4.0,1.0,3.0,4.0,4.0,4.0,lazy,NGG_01,3.0,3.0,5.0,3.0
499,107,All,,0.0-4.0-5.0,"[0, 1, 2, 3, 4, 5]","{'local': 1, 'casual': 2, 'educated': 3, 'friendly': 3, 'dependable': 2, 'traditional': 2}",25203.0,audio/NGN/NGN_09_NG.mp3,164389,9,survey-likert,,1.0,2.0,3.0,3.0,2.0,2.0,proper,NGN_09,3.0,3.0,5.0,3.0
501,107,All,,0.0-4.0-7.0,"[0, 1, 2, 3, 4, 5]","{'local': 4, 'casual': 1, 'educated': 3, 'friendly': 3, 'dependable': 5, 'traditional': 3}",13738.0,audio/NGG/NGG_02_G.mp3,179322,11,survey-likert,,4.0,1.0,3.0,3.0,5.0,3.0,lazy,NGG_02,3.0,3.0,5.0,3.0
503,107,All,,0.0-4.0-9.0,"[0, 1, 2, 3, 4, 5]","{'local': 4, 'casual': 2, 'educated': 2, 'friendly': 3, 'dependable': 4, 'traditional': 2}",20638.0,audio/NGN/NGN_04_NG.mp3,201802,13,survey-likert,,4.0,2.0,2.0,3.0,4.0,2.0,proper,NGN_04,3.0,3.0,5.0,3.0
505,107,All,,0.0-4.0-11.0,"[0, 1, 2, 3, 4, 5]","{'local': 1, 'casual': 1, 'educated': 3, 'friendly': 1, 'dependable': 2, 'traditional': 2}",16083.0,audio/NL/NL_01_L.mp3,219503,15,survey-likert,,1.0,1.0,3.0,1.0,2.0,2.0,lazy,NL_01,3.0,3.0,5.0,3.0
507,107,All,,0.0-4.0-13.0,"[0, 1, 2, 3, 4, 5]","{'local': 4, 'casual': 1, 'educated': 4, 'friendly': 3, 'dependable': 5, 'traditional': 3}",15962.0,audio/NGN/NGN_02_NG.mp3,237057,17,survey-likert,,4.0,1.0,4.0,3.0,5.0,3.0,proper,NGN_02,3.0,3.0,5.0,3.0
509,107,All,,0.0-4.0-15.0,"[0, 1, 2, 3, 4, 5]","{'local': 4, 'casual': 1, 'educated': 3, 'friendly': 4, 'dependable': 4, 'traditional': 1}",18281.0,audio/NL/NL_06_N.mp3,256315,19,survey-likert,,4.0,1.0,3.0,4.0,4.0,1.0,proper,NL_06,3.0,3.0,5.0,3.0
511,107,All,,0.0-4.0-17.0,"[0, 1, 2, 3, 4, 5]","{'local': 4, 'casual': 1, 'educated': 4, 'friendly': 3, 'dependable': 5, 'traditional': 4}",11350.0,audio/NL/NL_07_L.mp3,268904,21,survey-likert,,4.0,1.0,4.0,3.0,5.0,4.0,lazy,NL_07,3.0,3.0,5.0,3.0
513,107,All,,0.0-4.0-19.0,"[0, 1, 2, 3, 4, 5]","{'local': 2, 'casual': 1, 'educated': 2, 'friendly': 3, 'dependable': 3, 'traditional': 4}",15925.0,audio/NGG/NGG_06_G.mp3,286295,23,survey-likert,,2.0,1.0,2.0,3.0,3.0,4.0,lazy,NGG_06,3.0,3.0,5.0,3.0
515,107,All,,0.0-4.0-21.0,"[0, 1, 2, 3, 4, 5]","{'local': 0, 'casual': 5, 'educated': 1, 'friendly': 1, 'dependable': 1, 'traditional': 0}",15083.0,audio/NGG/NGG_09_G.mp3,303704,25,survey-likert,,0.0,5.0,1.0,1.0,1.0,0.0,lazy,NGG_09,3.0,3.0,5.0,3.0
519,107,All,,0.0-4.0-25.0,"[0, 1, 2, 3, 4, 5]","{'local': 2, 'casual': 1, 'educated': 4, 'friendly': 4, 'dependable': 5, 'traditional': 2}",15251.0,audio/NGN/NGN_03_N.mp3,332998,29,survey-likert,,2.0,1.0,4.0,4.0,5.0,2.0,lazy,NGN_03,3.0,3.0,5.0,3.0
521,107,All,,0.0-4.0-27.0,"[0, 1, 2, 3, 4, 5]","{'local': 1, 'casual': 4, 'educated': 2, 'friendly': 2, 'dependable': 2, 'traditional': 3}",24153.0,audio/NGN/NGN_10_N.mp3,358625,31,survey-likert,,1.0,4.0,2.0,2.0,2.0,3.0,lazy,NGN_10,3.0,3.0,5.0,3.0
523,107,All,,0.0-4.0-29.0,"[0, 1, 2, 3, 4, 5]","{'local': 3, 'casual': 1, 'educated': 5, 'friendly': 4, 'dependable': 4, 'traditional': 2}",15254.0,audio/NGN/NGN_05_N.mp3,375630,33,survey-likert,,3.0,1.0,5.0,4.0,4.0,2.0,lazy,NGN_05,3.0,3.0,5.0,3.0
525,107,All,,0.0-4.0-31.0,"[0, 1, 2, 3, 4, 5]","{'local': 4, 'casual': 1, 'educated': 4, 'friendly': 4, 'dependable': 5, 'traditional': 3}",14766.0,audio/NGN/NGN_07_NG.mp3,392167,35,survey-likert,,4.0,1.0,4.0,4.0,5.0,3.0,proper,NGN_07,3.0,3.0,5.0,3.0
527,107,All,,0.0-4.0-33.0,"[0, 1, 2, 3, 4, 5]","{'local': 3, 'casual': 2, 'educated': 3, 'friendly': 1, 'dependable': 2, 'traditional': 2}",14638.0,audio/NGG/NGG_03_NG.mp3,408391,37,survey-likert,,3.0,2.0,3.0,1.0,2.0,2.0,proper,NGG_03,3.0,3.0,5.0,3.0
529,107,All,,0.0-4.0-35.0,"[0, 1, 2, 3, 4, 5]","{'local': 2, 'casual': 1, 'educated': 2, 'friendly': 2, 'dependable': 2, 'traditional': 4}",14675.0,audio/NL/NL_04_N.mp3,424002,39,survey-likert,,2.0,1.0,2.0,2.0,2.0,4.0,proper,NL_04,3.0,3.0,5.0,3.0
533,107,All,,0.0-4.0-39.0,"[0, 1, 2, 3, 4, 5]","{'local': 3, 'casual': 1, 'educated': 4, 'friendly': 3, 'dependable': 4, 'traditional': 3}",10109.0,audio/NGN/NGN_01_N.mp3,447367,43,survey-likert,,3.0,1.0,4.0,3.0,4.0,3.0,lazy,NGN_01,3.0,3.0,5.0,3.0
535,107,All,,0.0-4.0-41.0,"[0, 1, 2, 3, 4, 5]","{'local': 2, 'casual': 1, 'educated': 2, 'friendly': 3, 'dependable': 2, 'traditional': 2}",19308.0,audio/NGG/NGG_08_NG.mp3,468193,45,survey-likert,,2.0,1.0,2.0,3.0,2.0,2.0,proper,NGG_08,3.0,3.0,5.0,3.0
537,107,All,,0.0-4.0-43.0,"[0, 1, 2, 3, 4, 5]","{'local': 2, 'casual': 1, 'educated': 3, 'friendly': 1, 'dependable': 3, 'traditional': 4}",11762.0,audio/NL/NL_02_L.mp3,480971,47,survey-likert,,2.0,1.0,3.0,1.0,3.0,4.0,lazy,NL_02,3.0,3.0,5.0,3.0
539,107,All,,0.0-4.0-45.0,"[0, 1, 2, 3, 4, 5]","{'local': 2, 'casual': 1, 'educated': 3, 'friendly': 3, 'dependable': 4, 'traditional': 3}",15848.0,audio/NL/NL_03_L.mp3,497970,49,survey-likert,,2.0,1.0,3.0,3.0,4.0,3.0,lazy,NL_03,3.0,3.0,5.0,3.0
541,107,All,,0.0-4.0-47.0,"[0, 1, 2, 3, 4, 5]","{'local': 3, 'casual': 1, 'educated': 4, 'friendly': 1, 'dependable': 4, 'traditional': 3}",15499.0,audio/NL/NL_10_L.mp3,514865,51,survey-likert,,3.0,1.0,4.0,1.0,4.0,3.0,lazy,NL_10,3.0,3.0,5.0,3.0
543,107,All,,0.0-4.0-49.0,"[0, 1, 2, 3, 4, 5]","{'local': 3, 'casual': 2, 'educated': 1, 'friendly': 0, 'dependable': 2, 'traditional': 3}",19985.0,audio/NGG/NGG_04_G.mp3,536000,53,survey-likert,,3.0,2.0,1.0,0.0,2.0,3.0,lazy,NGG_04,3.0,3.0,5.0,3.0
545,107,All,,0.0-4.0-51.0,"[0, 1, 2, 3, 4, 5]","{'local': 2, 'casual': 1, 'educated': 2, 'friendly': 2, 'dependable': 3, 'traditional': 2}",18324.0,audio/NGG/NGG_05_G.mp3,555594,55,survey-likert,,2.0,1.0,2.0,2.0,3.0,2.0,lazy,NGG_05,3.0,3.0,5.0,3.0
547,107,All,,0.0-4.0-53.0,"[0, 1, 2, 3, 4, 5]","{'local': 3, 'casual': 1, 'educated': 5, 'friendly': 1, 'dependable': 5, 'traditional': 4}",13843.0,audio/NL/NL_08_L.mp3,571076,57,survey-likert,,3.0,1.0,5.0,1.0,5.0,4.0,lazy,NL_08,3.0,3.0,5.0,3.0
551,107,All,,0.0-4.0-57.0,"[0, 1, 2, 3, 4, 5]","{'local': 1, 'casual': 1, 'educated': 2, 'friendly': 1, 'dependable': 2, 'traditional': 4}",11524.0,audio/NGN/NGN_08_NG.mp3,595391,61,survey-likert,,1.0,1.0,2.0,1.0,2.0,4.0,proper,NGN_08,3.0,3.0,5.0,3.0
553,107,All,,0.0-4.0-59.0,"[0, 1, 2, 3, 4, 5]","{'local': 1, 'casual': 1, 'educated': 2, 'friendly': 0, 'dependable': 2, 'traditional': 3}",12446.0,audio/NGG/NGG_10_NG.mp3,610181,63,survey-likert,,1.0,1.0,2.0,0.0,2.0,3.0,proper,NGG_10,3.0,3.0,5.0,3.0
565,85,All,,0.0-4.0-1.0,"[0, 1, 2, 3, 4, 5]","{'local': 2, 'casual': 4, 'educated': 3, 'friendly': 1, 'dependable': 2, 'traditional': 3}",36940.0,audio/NGN/NGN_05_NG.mp3,169725,5,survey-likert,,2.0,4.0,3.0,1.0,2.0,3.0,proper,NGN_05,4.0,3.0,5.0,5.0
567,85,All,,0.0-4.0-3.0,"[0, 1, 2, 3, 4, 5]","{'local': 2, 'casual': 1, 'educated': 5, 'friendly': 4, 'dependable': 5, 'traditional': 4}",26314.0,audio/NL/NL_07_N.mp3,197356,7,survey-likert,,2.0,1.0,5.0,4.0,5.0,4.0,proper,NL_07,4.0,3.0,5.0,5.0
569,85,All,,0.0-4.0-5.0,"[0, 1, 2, 3, 4, 5]","{'local': 3, 'casual': 2, 'educated': 4, 'friendly': 4, 'dependable': 4, 'traditional': 3}",30140.0,audio/NGG/NGG_02_NG.mp3,228965,9,survey-likert,,3.0,2.0,4.0,4.0,4.0,3.0,proper,NGG_02,4.0,3.0,5.0,5.0
571,85,All,,0.0-4.0-7.0,"[0, 1, 2, 3, 4, 5]","{'local': 2, 'casual': 3, 'educated': 3, 'friendly': 2, 'dependable': 3, 'traditional': 2}",30182.0,audio/NGN/NGN_08_N.mp3,260926,11,survey-likert,,2.0,3.0,3.0,2.0,3.0,2.0,lazy,NGN_08,4.0,3.0,5.0,5.0
573,85,All,,0.0-4.0-9.0,"[0, 1, 2, 3, 4, 5]","{'local': 3, 'casual': 3, 'educated': 3, 'friendly': 2, 'dependable': 3, 'traditional': 3}",21811.0,audio/NL/NL_06_L.mp3,283853,13,survey-likert,,3.0,3.0,3.0,2.0,3.0,3.0,lazy,NL_06,4.0,3.0,5.0,5.0
575,85,All,,0.0-4.0-11.0,"[0, 1, 2, 3, 4, 5]","{'local': 4, 'casual': 3, 'educated': 3, 'friendly': 4, 'dependable': 4, 'traditional': 2}",21952.0,audio/NL/NL_03_L.mp3,306941,15,survey-likert,,4.0,3.0,3.0,4.0,4.0,2.0,lazy,NL_03,4.0,3.0,5.0,5.0
577,85,All,,0.0-4.0-13.0,"[0, 1, 2, 3, 4, 5]","{'local': 4, 'casual': 4, 'educated': 4, 'friendly': 4, 'dependable': 4, 'traditional': 3}",17738.0,audio/NGN/NGN_07_NG.mp3,326499,17,survey-likert,,4.0,4.0,4.0,4.0,4.0,3.0,proper,NGN_07,4.0,3.0,5.0,5.0
579,85,All,,0.0-4.0-15.0,"[0, 1, 2, 3, 4, 5]","{'local': 4, 'casual': 4, 'educated': 3, 'friendly': 3, 'dependable': 3, 'traditional': 3}",17539.0,audio/NGN/NGN_04_NG.mp3,345857,19,survey-likert,,4.0,4.0,3.0,3.0,3.0,3.0,proper,NGN_04,4.0,3.0,5.0,5.0
581,85,All,,0.0-4.0-17.0,"[0, 1, 2, 3, 4, 5]","{'local': 4, 'casual': 3, 'educated': 4, 'friendly': 4, 'dependable': 4, 'traditional': 2}",16850.0,audio/NGN/NGN_10_N.mp3,364181,21,survey-likert,,4.0,3.0,4.0,4.0,4.0,2.0,lazy,NGN_10,4.0,3.0,5.0,5.0
583,85,All,,0.0-4.0-19.0,"[0, 1, 2, 3, 4, 5]","{'local': 4, 'casual': 4, 'educated': 3, 'friendly': 4, 'dependable': 4, 'traditional': 2}",27693.0,audio/NGG/NGG_03_NG.mp3,393456,23,survey-likert,,4.0,4.0,3.0,4.0,4.0,2.0,proper,NGG_03,4.0,3.0,5.0,5.0
585,85,All,,0.0-4.0-21.0,"[0, 1, 2, 3, 4, 5]","{'local': 4, 'casual': 4, 'educated': 3, 'friendly': 4, 'dependable': 3, 'traditional': 2}",31467.0,audio/NL/NL_04_L.mp3,426121,25,survey-likert,,4.0,4.0,3.0,4.0,3.0,2.0,lazy,NL_04,4.0,3.0,5.0,5.0
587,85,All,,0.0-4.0-23.0,"[0, 1, 2, 3, 4, 5]","{'local': 3, 'casual': 2, 'educated': 4, 'friendly': 2, 'dependable': 4, 'traditional': 3}",19172.0,audio/NGN/NGN_09_N.mp3,446897,27,survey-likert,,3.0,2.0,4.0,2.0,4.0,3.0,lazy,NGN_09,4.0,3.0,5.0,5.0
589,85,All,,0.0-4.0-25.0,"[0, 1, 2, 3, 4, 5]","{'local': 4, 'casual': 3, 'educated': 4, 'friendly': 3, 'dependable': 4, 'traditional': 2}",17411.0,audio/NGG/NGG_09_NG.mp3,467101,29,survey-likert,,4.0,3.0,4.0,3.0,4.0,2.0,proper,NGG_09,4.0,3.0,5.0,5.0
591,85,All,,0.0-4.0-27.0,"[0, 1, 2, 3, 4, 5]","{'local': 4, 'casual': 4, 'educated': 4, 'friendly': 4, 'dependable': 3, 'traditional': 2}",18619.0,audio/NL/NL_09_L.mp3,487007,31,survey-likert,,4.0,4.0,4.0,4.0,3.0,2.0,lazy,NL_09,4.0,3.0,5.0,5.0
597,85,All,,0.0-4.0-33.0,"[0, 1, 2, 3, 4, 5]","{'local': 4, 'casual': 4, 'educated': 3, 'friendly': 3, 'dependable': 3, 'traditional': 1}",18959.0,audio/NL/NL_10_L.mp3,536843,37,survey-likert,,4.0,4.0,3.0,3.0,3.0,1.0,lazy,NL_10,4.0,3.0,5.0,5.0
601,85,All,,0.0-4.0-37.0,"[0, 1, 2, 3, 4, 5]","{'local': 3, 'casual': 3, 'educated': 4, 'friendly': 3, 'dependable': 4, 'traditional': 3}",14270.0,audio/NGN/NGN_02_NG.mp3,564540,41,survey-likert,,3.0,3.0,4.0,3.0,4.0,3.0,proper,NGN_02,4.0,3.0,5.0,5.0
603,85,All,,0.0-4.0-39.0,"[0, 1, 2, 3, 4, 5]","{'local': 2, 'casual': 3, 'educated': 2, 'friendly': 2, 'dependable': 3, 'traditional': 2}",22093.0,audio/NGN/NGN_01_NG.mp3,588745,43,survey-likert,,2.0,3.0,2.0,2.0,3.0,2.0,proper,NGN_01,4.0,3.0,5.0,5.0
605,85,All,,0.0-4.0-41.0,"[0, 1, 2, 3, 4, 5]","{'local': 4, 'casual': 5, 'educated': 3, 'friendly': 3, 'dependable': 3, 'traditional': 1}",21713.0,audio/NL/NL_01_L.mp3,612085,45,survey-likert,,4.0,5.0,3.0,3.0,3.0,1.0,lazy,NL_01,4.0,3.0,5.0,5.0
607,85,All,,0.0-4.0-43.0,"[0, 1, 2, 3, 4, 5]","{'local': 4, 'casual': 4, 'educated': 3, 'friendly': 4, 'dependable': 3, 'traditional': 2}",16412.0,audio/NGG/NGG_01_G.mp3,630130,47,survey-likert,,4.0,4.0,3.0,4.0,3.0,2.0,lazy,NGG_01,4.0,3.0,5.0,5.0
609,85,All,,0.0-4.0-45.0,"[0, 1, 2, 3, 4, 5]","{'local': 4, 'casual': 4, 'educated': 3, 'friendly': 2, 'dependable': 3, 'traditional': 1}",17989.0,audio/NGG/NGG_08_NG.mp3,649720,49,survey-likert,,4.0,4.0,3.0,2.0,3.0,1.0,proper,NGG_08,4.0,3.0,5.0,5.0
611,85,All,,0.0-4.0-47.0,"[0, 1, 2, 3, 4, 5]","{'local': 4, 'casual': 3, 'educated': 3, 'friendly': 3, 'dependable': 4, 'traditional': 2}",18627.0,audio/NGG/NGG_06_NG.mp3,669761,51,survey-likert,,4.0,3.0,3.0,3.0,4.0,2.0,proper,NGG_06,4.0,3.0,5.0,5.0
613,85,All,,0.0-4.0-49.0,"[0, 1, 2, 3, 4, 5]","{'local': 1, 'casual': 4, 'educated': 2, 'friendly': 3, 'dependable': 2, 'traditional': 1}",17921.0,audio/NGN/NGN_03_N.mp3,689098,53,survey-likert,,1.0,4.0,2.0,3.0,2.0,1.0,lazy,NGN_03,4.0,3.0,5.0,5.0
615,85,All,,0.0-4.0-51.0,"[0, 1, 2, 3, 4, 5]","{'local': 4, 'casual': 4, 'educated': 3, 'friendly': 3, 'dependable': 3, 'traditional': 2}",17462.0,audio/NGG/NGG_05_G.mp3,708157,55,survey-likert,,4.0,4.0,3.0,3.0,3.0,2.0,lazy,NGG_05,4.0,3.0,5.0,5.0
617,85,All,,0.0-4.0-53.0,"[0, 1, 2, 3, 4, 5]","{'local': 4, 'casual': 4, 'educated': 3, 'friendly': 3, 'dependable': 3, 'traditional': 1}",14699.0,audio/NL/NL_02_L.mp3,723865,57,survey-likert,,4.0,4.0,3.0,3.0,3.0,1.0,lazy,NL_02,4.0,3.0,5.0,5.0
619,85,All,,0.0-4.0-55.0,"[0, 1, 2, 3, 4, 5]","{'local': 3, 'casual': 4, 'educated': 3, 'friendly': 3, 'dependable': 3, 'traditional': 2}",20549.0,audio/NGG/NGG_04_NG.mp3,745853,59,survey-likert,,3.0,4.0,3.0,3.0,3.0,2.0,proper,NGG_04,4.0,3.0,5.0,5.0
621,85,All,,0.0-4.0-57.0,"[0, 1, 2, 3, 4, 5]","{'local': 4, 'casual': 4, 'educated': 3, 'friendly': 4, 'dependable': 3, 'traditional': 1}",15395.0,audio/NGG/NGG_10_G.mp3,763107,61,survey-likert,,4.0,4.0,3.0,4.0,3.0,1.0,lazy,NGG_10,4.0,3.0,5.0,5.0
623,85,All,,0.0-4.0-59.0,"[0, 1, 2, 3, 4, 5]","{'local': 2, 'casual': 1, 'educated': 4, 'friendly': 4, 'dependable': 4, 'traditional': 4}",21995.0,audio/NL/NL_08_N.mp3,786901,63,survey-likert,,2.0,1.0,4.0,4.0,4.0,4.0,proper,NL_08,4.0,3.0,5.0,5.0
635,90,All,,0.0-4.0-1.0,"[0, 1, 2, 3, 4, 5]","{'local': 3, 'casual': 5, 'educated': 3, 'friendly': 4, 'dependable': 3, 'traditional': 3}",20543.0,audio/NL/NL_07_L.mp3,69827,5,survey-likert,,3.0,5.0,3.0,4.0,3.0,3.0,lazy,NL_07,2.0,2.0,3.0,3.0
637,90,All,,0.0-4.0-3.0,"[0, 1, 2, 3, 4, 5]","{'local': 2, 'casual': 1, 'educated': 4, 'friendly': 3, 'dependable': 3, 'traditional': 2}",17973.0,audio/NGN/NGN_07_NG.mp3,89533,7,survey-likert,,2.0,1.0,4.0,3.0,3.0,2.0,proper,NGN_07,2.0,2.0,3.0,3.0
639,90,All,,0.0-4.0-5.0,"[0, 1, 2, 3, 4, 5]","{'local': 1, 'casual': 4, 'educated': 3, 'friendly': 2, 'dependable': 2, 'traditional': 3}",19924.0,audio/NL/NL_04_N.mp3,110385,9,survey-likert,,1.0,4.0,3.0,2.0,2.0,3.0,proper,NL_04,2.0,2.0,3.0,3.0
641,90,All,,0.0-4.0-7.0,"[0, 1, 2, 3, 4, 5]","{'local': 3, 'casual': 5, 'educated': 3, 'friendly': 3, 'dependable': 3, 'traditional': 5}",15139.0,audio/NL/NL_03_N.mp3,126580,11,survey-likert,,3.0,5.0,3.0,3.0,3.0,5.0,proper,NL_03,2.0,2.0,3.0,3.0
643,90,All,,0.0-4.0-9.0,"[0, 1, 2, 3, 4, 5]","{'local': 2, 'casual': 4, 'educated': 3, 'friendly': 3, 'dependable': 3, 'traditional': 4}",22793.0,audio/NGN/NGN_04_N.mp3,151152,13,survey-likert,,2.0,4.0,3.0,3.0,3.0,4.0,lazy,NGN_04,2.0,2.0,3.0,3.0
645,90,All,,0.0-4.0-11.0,"[0, 1, 2, 3, 4, 5]","{'local': 2, 'casual': 2, 'educated': 3, 'friendly': 2, 'dependable': 3, 'traditional': 3}",22041.0,audio/NGG/NGG_03_G.mp3,174572,15,survey-likert,,2.0,2.0,3.0,2.0,3.0,3.0,lazy,NGG_03,2.0,2.0,3.0,3.0
647,90,All,,0.0-4.0-13.0,"[0, 1, 2, 3, 4, 5]","{'local': 2, 'casual': 2, 'educated': 4, 'friendly': 3, 'dependable': 3, 'traditional': 4}",30760.0,audio/NL/NL_10_L.mp3,206730,17,survey-likert,,2.0,2.0,4.0,3.0,3.0,4.0,lazy,NL_10,2.0,2.0,3.0,3.0
649,90,All,,0.0-4.0-15.0,"[0, 1, 2, 3, 4, 5]","{'local': 2, 'casual': 2, 'educated': 3, 'friendly': 4, 'dependable': 4, 'traditional': 4}",16498.0,audio/NGN/NGN_02_NG.mp3,224797,19,survey-likert,,2.0,2.0,3.0,4.0,4.0,4.0,proper,NGN_02,2.0,2.0,3.0,3.0
651,90,All,,0.0-4.0-17.0,"[0, 1, 2, 3, 4, 5]","{'local': 2, 'casual': 0, 'educated': 4, 'friendly': 3, 'dependable': 3, 'traditional': 1}",15168.0,audio/NGN/NGN_09_NG.mp3,241568,21,survey-likert,,2.0,0.0,4.0,3.0,3.0,1.0,proper,NGN_09,2.0,2.0,3.0,3.0
653,90,All,,0.0-4.0-19.0,"[0, 1, 2, 3, 4, 5]","{'local': 1, 'casual': 3, 'educated': 3, 'friendly': 3, 'dependable': 3, 'traditional': 3}",11995.0,audio/NL/NL_09_N.mp3,254874,23,survey-likert,,1.0,3.0,3.0,3.0,3.0,3.0,proper,NL_09,2.0,2.0,3.0,3.0
657,90,All,,0.0-4.0-23.0,"[0, 1, 2, 3, 4, 5]","{'local': 2, 'casual': 4, 'educated': 3, 'friendly': 4, 'dependable': 3, 'traditional': 5}",13628.0,audio/NGG/NGG_08_G.mp3,281567,27,survey-likert,,2.0,4.0,3.0,4.0,3.0,5.0,lazy,NGG_08,2.0,2.0,3.0,3.0
659,90,All,,0.0-4.0-25.0,"[0, 1, 2, 3, 4, 5]","{'local': 1, 'casual': 0, 'educated': 4, 'friendly': 3, 'dependable': 3, 'traditional': 1}",15768.0,audio/NGN/NGN_01_N.mp3,299298,29,survey-likert,,1.0,0.0,4.0,3.0,3.0,1.0,lazy,NGN_01,2.0,2.0,3.0,3.0
661,90,All,,0.0-4.0-27.0,"[0, 1, 2, 3, 4, 5]","{'local': 1, 'casual': 0, 'educated': 4, 'friendly': 3, 'dependable': 3, 'traditional': 2}",20633.0,audio/NGN/NGN_05_N.mp3,321822,31,survey-likert,,1.0,0.0,4.0,3.0,3.0,2.0,lazy,NGN_05,2.0,2.0,3.0,3.0
665,90,All,,0.0-4.0-31.0,"[0, 1, 2, 3, 4, 5]","{'local': 2, 'casual': 2, 'educated': 3, 'friendly': 2, 'dependable': 3, 'traditional': 3}",24964.0,audio/NGG/NGG_06_NG.mp3,361213,35,survey-likert,,2.0,2.0,3.0,2.0,3.0,3.0,proper,NGG_06,2.0,2.0,3.0,3.0
667,90,All,,0.0-4.0-33.0,"[0, 1, 2, 3, 4, 5]","{'local': 2, 'casual': 5, 'educated': 3, 'friendly': 4, 'dependable': 3, 'traditional': 5}",11381.0,audio/NGG/NGG_04_NG.mp3,374040,37,survey-likert,,2.0,5.0,3.0,4.0,3.0,5.0,proper,NGG_04,2.0,2.0,3.0,3.0
669,90,All,,0.0-4.0-35.0,"[0, 1, 2, 3, 4, 5]","{'local': 2, 'casual': 4, 'educated': 3, 'friendly': 3, 'dependable': 3, 'traditional': 4}",16480.0,audio/NGN/NGN_03_NG.mp3,391938,39,survey-likert,,2.0,4.0,3.0,3.0,3.0,4.0,proper,NGN_03,2.0,2.0,3.0,3.0
671,90,All,,0.0-4.0-37.0,"[0, 1, 2, 3, 4, 5]","{'local': 3, 'casual': 4, 'educated': 3, 'friendly': 3, 'dependable': 3, 'traditional': 4}",17452.0,audio/NGG/NGG_02_G.mp3,410582,41,survey-likert,,3.0,4.0,3.0,3.0,3.0,4.0,lazy,NGG_02,2.0,2.0,3.0,3.0
673,90,All,,0.0-4.0-39.0,"[0, 1, 2, 3, 4, 5]","{'local': 1, 'casual': 2, 'educated': 3, 'friendly': 2, 'dependable': 3, 'traditional': 3}",13268.0,audio/NGG/NGG_09_G.mp3,426177,43,survey-likert,,1.0,2.0,3.0,2.0,3.0,3.0,lazy,NGG_09,2.0,2.0,3.0,3.0
675,90,All,,0.0-4.0-41.0,"[0, 1, 2, 3, 4, 5]","{'local': 2, 'casual': 4, 'educated': 3, 'friendly': 3, 'dependable': 3, 'traditional': 4}",12890.0,audio/NGG/NGG_05_NG.mp3,440739,45,survey-likert,,2.0,4.0,3.0,3.0,3.0,4.0,proper,NGG_05,2.0,2.0,3.0,3.0
677,90,All,,0.0-4.0-43.0,"[0, 1, 2, 3, 4, 5]","{'local': 2, 'casual': 5, 'educated': 3, 'friendly': 3, 'dependable': 3, 'traditional': 4}",10695.0,audio/NGG/NGG_01_NG.mp3,452893,47,survey-likert,,2.0,5.0,3.0,3.0,3.0,4.0,proper,NGG_01,2.0,2.0,3.0,3.0
679,90,All,,0.0-4.0-45.0,"[0, 1, 2, 3, 4, 5]","{'local': 1, 'casual': 1, 'educated': 4, 'friendly': 3, 'dependable': 3, 'traditional': 3}",13045.0,audio/NGN/NGN_10_N.mp3,467504,49,survey-likert,,1.0,1.0,4.0,3.0,3.0,3.0,lazy,NGN_10,2.0,2.0,3.0,3.0
681,90,All,,0.0-4.0-47.0,"[0, 1, 2, 3, 4, 5]","{'local': 1, 'casual': 5, 'educated': 3, 'friendly': 3, 'dependable': 3, 'traditional': 4}",29159.0,audio/NGN/NGN_08_N.mp3,498475,51,survey-likert,,1.0,5.0,3.0,3.0,3.0,4.0,lazy,NGN_08,2.0,2.0,3.0,3.0
683,90,All,,0.0-4.0-49.0,"[0, 1, 2, 3, 4, 5]","{'local': 3, 'casual': 5, 'educated': 3, 'friendly': 4, 'dependable': 3, 'traditional': 4}",21833.0,audio/NL/NL_02_L.mp3,521318,53,survey-likert,,3.0,5.0,3.0,4.0,3.0,4.0,lazy,NL_02,2.0,2.0,3.0,3.0
685,90,All,,0.0-4.0-51.0,"[0, 1, 2, 3, 4, 5]","{'local': 1, 'casual': 4, 'educated': 2, 'friendly': 2, 'dependable': 3, 'traditional': 4}",12817.0,audio/NGG/NGG_10_NG.mp3,536553,55,survey-likert,,1.0,4.0,2.0,2.0,3.0,4.0,proper,NGG_10,2.0,2.0,3.0,3.0
689,90,All,,0.0-4.0-55.0,"[0, 1, 2, 3, 4, 5]","{'local': 0, 'casual': 0, 'educated': 3, 'friendly': 2, 'dependable': 3, 'traditional': 3}",14288.0,audio/NL/NL_08_N.mp3,563577,59,survey-likert,,0.0,0.0,3.0,2.0,3.0,3.0,proper,NL_08,2.0,2.0,3.0,3.0
691,90,All,,0.0-4.0-57.0,"[0, 1, 2, 3, 4, 5]","{'local': 2, 'casual': 5, 'educated': 3, 'friendly': 4, 'dependable': 3, 'traditional': 5}",12799.0,audio/NL/NL_01_L.mp3,578027,61,survey-likert,,2.0,5.0,3.0,4.0,3.0,5.0,lazy,NL_01,2.0,2.0,3.0,3.0
693,90,All,,0.0-4.0-59.0,"[0, 1, 2, 3, 4, 5]","{'local': 1, 'casual': 0, 'educated': 4, 'friendly': 2, 'dependable': 4, 'traditional': 2}",14644.0,audio/NL/NL_06_N.mp3,593662,63,survey-likert,,1.0,0.0,4.0,2.0,4.0,2.0,proper,NL_06,2.0,2.0,3.0,3.0
705,65,All,,0.0-4.0-1.0,"[0, 1, 2, 3, 4, 5]","{'local': 4, 'casual': 5, 'educated': 2, 'friendly': 3, 'dependable': 3, 'traditional': 3}",105129.0,audio/NGG/NGG_06_G.mp3,242801,5,survey-likert,,4.0,5.0,2.0,3.0,3.0,3.0,lazy,NGG_06,5.0,2.0,5.0,5.0
707,65,All,,0.0-4.0-3.0,"[0, 1, 2, 3, 4, 5]","{'local': 5, 'casual': 5, 'educated': 2, 'friendly': 5, 'dependable': 2, 'traditional': 2}",46512.0,audio/NGG/NGG_03_G.mp3,291282,7,survey-likert,,5.0,5.0,2.0,5.0,2.0,2.0,lazy,NGG_03,5.0,2.0,5.0,5.0
709,65,All,,0.0-4.0-5.0,"[0, 1, 2, 3, 4, 5]","{'local': 5, 'casual': 4, 'educated': 3, 'friendly': 3, 'dependable': 4, 'traditional': 2}",35483.0,audio/NGG/NGG_02_G.mp3,328280,9,survey-likert,,5.0,4.0,3.0,3.0,4.0,2.0,lazy,NGG_02,5.0,2.0,5.0,5.0
711,65,All,,0.0-4.0-7.0,"[0, 1, 2, 3, 4, 5]","{'local': 4, 'casual': 5, 'educated': 2, 'friendly': 3, 'dependable': 2, 'traditional': 2}",26487.0,audio/NGG/NGG_10_G.mp3,356898,11,survey-likert,,4.0,5.0,2.0,3.0,2.0,2.0,lazy,NGG_10,5.0,2.0,5.0,5.0
713,65,All,,0.0-4.0-9.0,"[0, 1, 2, 3, 4, 5]","{'local': 4, 'casual': 0, 'educated': 4, 'friendly': 2, 'dependable': 3, 'traditional': 4}",32596.0,audio/NGN/NGN_07_N.mp3,391449,13,survey-likert,,4.0,0.0,4.0,2.0,3.0,4.0,lazy,NGN_07,5.0,2.0,5.0,5.0
715,65,All,,0.0-4.0-11.0,"[0, 1, 2, 3, 4, 5]","{'local': 5, 'casual': 1, 'educated': 4, 'friendly': 1, 'dependable': 4, 'traditional': 4}",30453.0,audio/NGN/NGN_10_NG.mp3,423178,15,survey-likert,,5.0,1.0,4.0,1.0,4.0,4.0,proper,NGN_10,5.0,2.0,5.0,5.0
717,65,All,,0.0-4.0-13.0,"[0, 1, 2, 3, 4, 5]","{'local': 5, 'casual': 5, 'educated': 2, 'friendly': 4, 'dependable': 3, 'traditional': 2}",27451.0,audio/NGG/NGG_08_G.mp3,452115,17,survey-likert,,5.0,5.0,2.0,4.0,3.0,2.0,lazy,NGG_08,5.0,2.0,5.0,5.0
719,65,All,,0.0-4.0-15.0,"[0, 1, 2, 3, 4, 5]","{'local': 3, 'casual': 3, 'educated': 3, 'friendly': 2, 'dependable': 3, 'traditional': 2}",35551.0,audio/NL/NL_09_L.mp3,489034,19,survey-likert,,3.0,3.0,3.0,2.0,3.0,2.0,lazy,NL_09,5.0,2.0,5.0,5.0
721,65,All,,0.0-4.0-17.0,"[0, 1, 2, 3, 4, 5]","{'local': 2, 'casual': 0, 'educated': 3, 'friendly': 0, 'dependable': 3, 'traditional': 4}",30018.0,audio/NL/NL_06_L.mp3,520439,21,survey-likert,,2.0,0.0,3.0,0.0,3.0,4.0,lazy,NL_06,5.0,2.0,5.0,5.0
725,65,All,,0.0-4.0-21.0,"[0, 1, 2, 3, 4, 5]","{'local': 5, 'casual': 5, 'educated': 2, 'friendly': 5, 'dependable': 3, 'traditional': 3}",28843.0,audio/NGG/NGG_04_G.mp3,573768,25,survey-likert,,5.0,5.0,2.0,5.0,3.0,3.0,lazy,NGG_04,5.0,2.0,5.0,5.0
727,65,All,,0.0-4.0-23.0,"[0, 1, 2, 3, 4, 5]","{'local': 5, 'casual': 4, 'educated': 4, 'friendly': 4, 'dependable': 4, 'traditional': 3}",30207.0,audio/NGN/NGN_04_N.mp3,605830,27,survey-likert,,5.0,4.0,4.0,4.0,4.0,3.0,lazy,NGN_04,5.0,2.0,5.0,5.0
729,65,All,,0.0-4.0-25.0,"[0, 1, 2, 3, 4, 5]","{'local': 5, 'casual': 2, 'educated': 3, 'friendly': 1, 'dependable': 4, 'traditional': 3}",27061.0,audio/NL/NL_08_N.mp3,634736,29,survey-likert,,5.0,2.0,3.0,1.0,4.0,3.0,proper,NL_08,5.0,2.0,5.0,5.0
731,65,All,,0.0-4.0-27.0,"[0, 1, 2, 3, 4, 5]","{'local': 4, 'casual': 5, 'educated': 2, 'friendly': 4, 'dependable': 3, 'traditional': 3}",24553.0,audio/NL/NL_02_L.mp3,660313,31,survey-likert,,4.0,5.0,2.0,4.0,3.0,3.0,lazy,NL_02,5.0,2.0,5.0,5.0
733,65,All,,0.0-4.0-29.0,"[0, 1, 2, 3, 4, 5]","{'local': 3, 'casual': 0, 'educated': 4, 'friendly': 1, 'dependable': 5, 'traditional': 3}",33978.0,audio/NL/NL_10_N.mp3,696096,33,survey-likert,,3.0,0.0,4.0,1.0,5.0,3.0,proper,NL_10,5.0,2.0,5.0,5.0
737,65,All,,0.0-4.0-33.0,"[0, 1, 2, 3, 4, 5]","{'local': 3, 'casual': 1, 'educated': 2, 'friendly': 2, 'dependable': 3, 'traditional': 3}",21609.0,audio/NL/NL_07_N.mp3,732433,37,survey-likert,,3.0,1.0,2.0,2.0,3.0,3.0,proper,NL_07,5.0,2.0,5.0,5.0
739,65,All,,0.0-4.0-35.0,"[0, 1, 2, 3, 4, 5]","{'local': 4, 'casual': 5, 'educated': 3, 'friendly': 3, 'dependable': 3, 'traditional': 3}",18101.0,audio/NL/NL_03_N.mp3,751562,39,survey-likert,,4.0,5.0,3.0,3.0,3.0,3.0,proper,NL_03,5.0,2.0,5.0,5.0
741,65,All,,0.0-4.0-37.0,"[0, 1, 2, 3, 4, 5]","{'local': 3, 'casual': 0, 'educated': 2, 'friendly': 1, 'dependable': 3, 'traditional': 3}",28441.0,audio/NGN/NGN_01_N.mp3,781971,41,survey-likert,,3.0,0.0,2.0,1.0,3.0,3.0,lazy,NGN_01,5.0,2.0,5.0,5.0
743,65,All,,0.0-4.0-39.0,"[0, 1, 2, 3, 4, 5]","{'local': 4, 'casual': 5, 'educated': 2, 'friendly': 2, 'dependable': 2, 'traditional': 2}",17611.0,audio/NGN/NGN_03_N.mp3,801054,43,survey-likert,,4.0,5.0,2.0,2.0,2.0,2.0,lazy,NGN_03,5.0,2.0,5.0,5.0
745,65,All,,0.0-4.0-41.0,"[0, 1, 2, 3, 4, 5]","{'local': 4, 'casual': 0, 'educated': 3, 'friendly': 1, 'dependable': 4, 'traditional': 3}",31745.0,audio/NGG/NGG_09_G.mp3,835177,45,survey-likert,,4.0,0.0,3.0,1.0,4.0,3.0,lazy,NGG_09,5.0,2.0,5.0,5.0
747,65,All,,0.0-4.0-43.0,"[0, 1, 2, 3, 4, 5]","{'local': 5, 'casual': 0, 'educated': 4, 'friendly': 1, 'dependable': 4, 'traditional': 3}",28709.0,audio/NGN/NGN_02_NG.mp3,865569,47,survey-likert,,5.0,0.0,4.0,1.0,4.0,3.0,proper,NGN_02,5.0,2.0,5.0,5.0
749,65,All,,0.0-4.0-45.0,"[0, 1, 2, 3, 4, 5]","{'local': 4, 'casual': 5, 'educated': 2, 'friendly': 2, 'dependable': 4, 'traditional': 3}",22957.0,audio/NL/NL_01_N.mp3,890458,49,survey-likert,,4.0,5.0,2.0,2.0,4.0,3.0,proper,NL_01,5.0,2.0,5.0,5.0
751,65,All,,0.0-4.0-47.0,"[0, 1, 2, 3, 4, 5]","{'local': 5, 'casual': 5, 'educated': 4, 'friendly': 1, 'dependable': 3, 'traditional': 3}",30556.0,audio/NGG/NGG_01_G.mp3,922477,51,survey-likert,,5.0,5.0,4.0,1.0,3.0,3.0,lazy,NGG_01,5.0,2.0,5.0,5.0
755,65,All,,0.0-4.0-51.0,"[0, 1, 2, 3, 4, 5]","{'local': 5, 'casual': 0, 'educated': 4, 'friendly': 0, 'dependable': 4, 'traditional': 3}",23452.0,audio/NGN/NGN_09_NG.mp3,963217,55,survey-likert,,5.0,0.0,4.0,0.0,4.0,3.0,proper,NGN_09,5.0,2.0,5.0,5.0
757,65,All,,0.0-4.0-53.0,"[0, 1, 2, 3, 4, 5]","{'local': 5, 'casual': 1, 'educated': 2, 'friendly': 1, 'dependable': 3, 'traditional': 3}",33384.0,audio/NGG/NGG_05_NG.mp3,998309,57,survey-likert,,5.0,1.0,2.0,1.0,3.0,3.0,proper,NGG_05,5.0,2.0,5.0,5.0
759,65,All,,0.0-4.0-55.0,"[0, 1, 2, 3, 4, 5]","{'local': 3, 'casual': 5, 'educated': 2, 'friendly': 3, 'dependable': 3, 'traditional': 3}",30855.0,audio/NGN/NGN_08_N.mp3,1031399,59,survey-likert,,3.0,5.0,2.0,3.0,3.0,3.0,lazy,NGN_08,5.0,2.0,5.0,5.0
761,65,All,,0.0-4.0-57.0,"[0, 1, 2, 3, 4, 5]","{'local': 5, 'casual': 3, 'educated': 4, 'friendly': 2, 'dependable': 3, 'traditional': 3}",20984.0,audio/NL/NL_04_N.mp3,1053358,61,survey-likert,,5.0,3.0,4.0,2.0,3.0,3.0,proper,NL_04,5.0,2.0,5.0,5.0
763,65,All,,0.0-4.0-59.0,"[0, 1, 2, 3, 4, 5]","{'local': 5, 'casual': 0, 'educated': 4, 'friendly': 1, 'dependable': 4, 'traditional': 3}",21076.0,audio/NGN/NGN_05_N.mp3,1076231,63,survey-likert,,5.0,0.0,4.0,1.0,4.0,3.0,lazy,NGN_05,5.0,2.0,5.0,5.0
775,84,All,,0.0-4.0-1.0,"[0, 1, 2, 3, 4, 5]","{'local': 5, 'casual': 5, 'educated': 3, 'friendly': 3, 'dependable': 3, 'traditional': 5}",17086.0,audio/NGG/NGG_04_G.mp3,602457,5,survey-likert,,5.0,5.0,3.0,3.0,3.0,5.0,lazy,NGG_04,5.0,2.0,5.0,5.0
779,84,All,,0.0-4.0-5.0,"[0, 1, 2, 3, 4, 5]","{'local': 2, 'casual': 2, 'educated': 3, 'friendly': 3, 'dependable': 3, 'traditional': 3}",582825.0,audio/NL/NL_07_N.mp3,1197713,9,survey-likert,,2.0,2.0,3.0,3.0,3.0,3.0,proper,NL_07,5.0,2.0,5.0,5.0
781,84,All,,0.0-4.0-7.0,"[0, 1, 2, 3, 4, 5]","{'local': 4, 'casual': 2, 'educated': 3, 'friendly': 2, 'dependable': 3, 'traditional': 3}",9353.0,audio/NGG/NGG_09_G.mp3,1209429,11,survey-likert,,4.0,2.0,3.0,2.0,3.0,3.0,lazy,NGG_09,5.0,2.0,5.0,5.0
783,84,All,,0.0-4.0-9.0,"[0, 1, 2, 3, 4, 5]","{'local': 3, 'casual': 3, 'educated': 2, 'friendly': 2, 'dependable': 3, 'traditional': 4}",12773.0,audio/NGN/NGN_08_N.mp3,1223979,13,survey-likert,,3.0,3.0,2.0,2.0,3.0,4.0,lazy,NGN_08,5.0,2.0,5.0,5.0
785,84,All,,0.0-4.0-11.0,"[0, 1, 2, 3, 4, 5]","{'local': 5, 'casual': 3, 'educated': 3, 'friendly': 3, 'dependable': 3, 'traditional': 4}",27039.0,audio/NGG/NGG_08_G.mp3,1252375,15,survey-likert,,5.0,3.0,3.0,3.0,3.0,4.0,lazy,NGG_08,5.0,2.0,5.0,5.0
787,84,All,,0.0-4.0-13.0,"[0, 1, 2, 3, 4, 5]","{'local': 4, 'casual': 3, 'educated': 3, 'friendly': 3, 'dependable': 3, 'traditional': 3}",8927.0,audio/NGG/NGG_02_G.mp3,1262494,17,survey-likert,,4.0,3.0,3.0,3.0,3.0,3.0,lazy,NGG_02,5.0,2.0,5.0,5.0
789,84,All,,0.0-4.0-15.0,"[0, 1, 2, 3, 4, 5]","{'local': 2, 'casual': 3, 'educated': 2, 'friendly': 3, 'dependable': 3, 'traditional': 4}",9901.0,audio/NL/NL_08_N.mp3,1274167,19,survey-likert,,2.0,3.0,2.0,3.0,3.0,4.0,proper,NL_08,5.0,2.0,5.0,5.0
791,84,All,,0.0-4.0-17.0,"[0, 1, 2, 3, 4, 5]","{'local': 4, 'casual': 3, 'educated': 3, 'friendly': 3, 'dependable': 3, 'traditional': 4}",127053.0,audio/NGG/NGG_05_NG.mp3,1402879,21,survey-likert,,4.0,3.0,3.0,3.0,3.0,4.0,proper,NGG_05,5.0,2.0,5.0,5.0
793,84,All,,0.0-4.0-19.0,"[0, 1, 2, 3, 4, 5]","{'local': 5, 'casual': 5, 'educated': 3, 'friendly': 3, 'dependable': 3, 'traditional': 5}",10169.0,audio/NGG/NGG_10_NG.mp3,1415457,23,survey-likert,,5.0,5.0,3.0,3.0,3.0,5.0,proper,NGG_10,5.0,2.0,5.0,5.0
795,84,All,,0.0-4.0-21.0,"[0, 1, 2, 3, 4, 5]","{'local': 4, 'casual': 3, 'educated': 3, 'friendly': 3, 'dependable': 3, 'traditional': 4}",7696.0,audio/NGN/NGN_02_N.mp3,1424342,25,survey-likert,,4.0,3.0,3.0,3.0,3.0,4.0,lazy,NGN_02,5.0,2.0,5.0,5.0
797,84,All,,0.0-4.0-23.0,"[0, 1, 2, 3, 4, 5]","{'local': 5, 'casual': 4, 'educated': 3, 'friendly': 3, 'dependable': 3, 'traditional': 5}",9057.0,audio/NL/NL_01_N.mp3,1435263,27,survey-likert,,5.0,4.0,3.0,3.0,3.0,5.0,proper,NL_01,5.0,2.0,5.0,5.0
799,84,All,,0.0-4.0-25.0,"[0, 1, 2, 3, 4, 5]","{'local': 4, 'casual': 3, 'educated': 3, 'friendly': 3, 'dependable': 3, 'traditional': 3}",8344.0,audio/NGG/NGG_01_G.mp3,1444991,29,survey-likert,,4.0,3.0,3.0,3.0,3.0,3.0,lazy,NGG_01,5.0,2.0,5.0,5.0
801,84,All,,0.0-4.0-27.0,"[0, 1, 2, 3, 4, 5]","{'local': 4, 'casual': 2, 'educated': 3, 'friendly': 3, 'dependable': 3, 'traditional': 4}",10504.0,audio/NGN/NGN_07_NG.mp3,1457241,31,survey-likert,,4.0,2.0,3.0,3.0,3.0,4.0,proper,NGN_07,5.0,2.0,5.0,5.0
803,84,All,,0.0-4.0-29.0,"[0, 1, 2, 3, 4, 5]","{'local': 3, 'casual': 0, 'educated': 3, 'friendly': 3, 'dependable': 3, 'traditional': 5}",10834.0,audio/NL/NL_06_N.mp3,1469060,33,survey-likert,,3.0,0.0,3.0,3.0,3.0,5.0,proper,NL_06,5.0,2.0,5.0,5.0
805,84,All,,0.0-4.0-31.0,"[0, 1, 2, 3, 4, 5]","{'local': 4, 'casual': 3, 'educated': 3, 'friendly': 3, 'dependable': 3, 'traditional': 4}",18317.0,audio/NGN/NGN_03_N.mp3,1488824,35,survey-likert,,4.0,3.0,3.0,3.0,3.0,4.0,lazy,NGN_03,5.0,2.0,5.0,5.0
807,84,All,,0.0-4.0-33.0,"[0, 1, 2, 3, 4, 5]","{'local': 3, 'casual': 4, 'educated': 3, 'friendly': 3, 'dependable': 3, 'traditional': 4}",22544.0,audio/NL/NL_09_N.mp3,1512731,37,survey-likert,,3.0,4.0,3.0,3.0,3.0,4.0,proper,NL_09,5.0,2.0,5.0,5.0
809,84,All,,0.0-4.0-35.0,"[0, 1, 2, 3, 4, 5]","{'local': 4, 'casual': 4, 'educated': 3, 'friendly': 3, 'dependable': 3, 'traditional': 4}",10096.0,audio/NGN/NGN_04_NG.mp3,1524663,39,survey-likert,,4.0,4.0,3.0,3.0,3.0,4.0,proper,NGN_04,5.0,2.0,5.0,5.0
813,84,All,,0.0-4.0-39.0,"[0, 1, 2, 3, 4, 5]","{'local': 4, 'casual': 3, 'educated': 3, 'friendly': 3, 'dependable': 3, 'traditional': 4}",11293.0,audio/NL/NL_04_L.mp3,1544550,43,survey-likert,,4.0,3.0,3.0,3.0,3.0,4.0,lazy,NL_04,5.0,2.0,5.0,5.0
815,84,All,,0.0-4.0-41.0,"[0, 1, 2, 3, 4, 5]","{'local': 4, 'casual': 3, 'educated': 3, 'friendly': 3, 'dependable': 3, 'traditional': 3}",11240.0,audio/NL/NL_03_N.mp3,1556827,45,survey-likert,,4.0,3.0,3.0,3.0,3.0,3.0,proper,NL_03,5.0,2.0,5.0,5.0
817,84,All,,0.0-4.0-43.0,"[0, 1, 2, 3, 4, 5]","{'local': 3, 'casual': 0, 'educated': 3, 'friendly': 3, 'dependable': 3, 'traditional': 5}",13493.0,audio/NGN/NGN_10_N.mp3,1571820,47,survey-likert,,3.0,0.0,3.0,3.0,3.0,5.0,lazy,NGN_10,5.0,2.0,5.0,5.0
819,84,All,,0.0-4.0-45.0,"[0, 1, 2, 3, 4, 5]","{'local': 3, 'casual': 2, 'educated': 3, 'friendly': 3, 'dependable': 3, 'traditional': 4}",35332.0,audio/NGN/NGN_09_N.mp3,1608769,49,survey-likert,,3.0,2.0,3.0,3.0,3.0,4.0,lazy,NGN_09,5.0,2.0,5.0,5.0
821,84,All,,0.0-4.0-47.0,"[0, 1, 2, 3, 4, 5]","{'local': 4, 'casual': 3, 'educated': 3, 'friendly': 3, 'dependable': 3, 'traditional': 3}",42602.0,audio/NL/NL_10_L.mp3,1652788,51,survey-likert,,4.0,3.0,3.0,3.0,3.0,3.0,lazy,NL_10,5.0,2.0,5.0,5.0
823,84,All,,0.0-4.0-49.0,"[0, 1, 2, 3, 4, 5]","{'local': 4, 'casual': 0, 'educated': 3, 'friendly': 3, 'dependable': 3, 'traditional': 5}",8845.0,audio/NGN/NGN_01_N.mp3,1663570,53,survey-likert,,4.0,0.0,3.0,3.0,3.0,5.0,lazy,NGN_01,5.0,2.0,5.0,5.0
825,84,All,,0.0-4.0-51.0,"[0, 1, 2, 3, 4, 5]","{'local': 4, 'casual': 4, 'educated': 3, 'friendly': 3, 'dependable': 3, 'traditional': 4}",52747.0,audio/NL/NL_02_N.mp3,1717482,55,survey-likert,,4.0,4.0,3.0,3.0,3.0,4.0,proper,NL_02,5.0,2.0,5.0,5.0
829,84,All,,0.0-4.0-55.0,"[0, 1, 2, 3, 4, 5]","{'local': 4, 'casual': 3, 'educated': 3, 'friendly': 3, 'dependable': 3, 'traditional': 3}",12149.0,audio/NGG/NGG_03_G.mp3,1755105,59,survey-likert,,4.0,3.0,3.0,3.0,3.0,3.0,lazy,NGG_03,5.0,2.0,5.0,5.0
831,84,All,,0.0-4.0-57.0,"[0, 1, 2, 3, 4, 5]","{'local': 3, 'casual': 3, 'educated': 3, 'friendly': 3, 'dependable': 3, 'traditional': 4}",32322.0,audio/NGG/NGG_06_G.mp3,1788899,61,survey-likert,,3.0,3.0,3.0,3.0,3.0,4.0,lazy,NGG_06,5.0,2.0,5.0,5.0
833,84,All,,0.0-4.0-59.0,"[0, 1, 2, 3, 4, 5]","{'local': 4, 'casual': 4, 'educated': 3, 'friendly': 3, 'dependable': 3, 'traditional': 3}",11228.0,audio/NGN/NGN_05_NG.mp3,1802052,63,survey-likert,,4.0,4.0,3.0,3.0,3.0,3.0,proper,NGN_05,5.0,2.0,5.0,5.0
915,66,All,,0.0-4.0-1.0,"[0, 1, 2, 3, 4, 5]","{'local': 3, 'casual': 4, 'educated': 3, 'friendly': 3, 'dependable': 3, 'traditional': 1}",19294.0,audio/NL/NL_03_L.mp3,169541,5,survey-likert,,3.0,4.0,3.0,3.0,3.0,1.0,lazy,NL_03,5.0,2.0,5.0,4.0
917,66,All,,0.0-4.0-3.0,"[0, 1, 2, 3, 4, 5]","{'local': 4, 'casual': 2, 'educated': 4, 'friendly': 3, 'dependable': 5, 'traditional': 4}",11577.0,audio/NGG/NGG_03_G.mp3,182465,7,survey-likert,,4.0,2.0,4.0,3.0,5.0,4.0,lazy,NGG_03,5.0,2.0,5.0,4.0
919,66,All,,0.0-4.0-5.0,"[0, 1, 2, 3, 4, 5]","{'local': 4, 'casual': 4, 'educated': 4, 'friendly': 4, 'dependable': 5, 'traditional': 1}",10444.0,audio/NGN/NGN_04_N.mp3,194661,9,survey-likert,,4.0,4.0,4.0,4.0,5.0,1.0,lazy,NGN_04,5.0,2.0,5.0,4.0
921,66,All,,0.0-4.0-7.0,"[0, 1, 2, 3, 4, 5]","{'local': 4, 'casual': 4, 'educated': 3, 'friendly': 3, 'dependable': 5, 'traditional': 1}",9810.0,audio/NL/NL_01_L.mp3,206050,11,survey-likert,,4.0,4.0,3.0,3.0,5.0,1.0,lazy,NL_01,5.0,2.0,5.0,4.0
923,66,All,,0.0-4.0-9.0,"[0, 1, 2, 3, 4, 5]","{'local': 4, 'casual': 1, 'educated': 3, 'friendly': 3, 'dependable': 5, 'traditional': 4}",11127.0,audio/NL/NL_09_L.mp3,218442,13,survey-likert,,4.0,1.0,3.0,3.0,5.0,4.0,lazy,NL_09,5.0,2.0,5.0,4.0
925,66,All,,0.0-4.0-11.0,"[0, 1, 2, 3, 4, 5]","{'local': 4, 'casual': 3, 'educated': 3, 'friendly': 3, 'dependable': 5, 'traditional': 1}",8308.0,audio/NGG/NGG_04_NG.mp3,228154,15,survey-likert,,4.0,3.0,3.0,3.0,5.0,1.0,proper,NGG_04,5.0,2.0,5.0,4.0
927,66,All,,0.0-4.0-13.0,"[0, 1, 2, 3, 4, 5]","{'local': 4, 'casual': 1, 'educated': 4, 'friendly': 3, 'dependable': 5, 'traditional': 4}",6807.0,audio/NGG/NGG_08_NG.mp3,236442,17,survey-likert,,4.0,1.0,4.0,3.0,5.0,4.0,proper,NGG_08,5.0,2.0,5.0,4.0
929,66,All,,0.0-4.0-15.0,"[0, 1, 2, 3, 4, 5]","{'local': 4, 'casual': 4, 'educated': 3, 'friendly': 3, 'dependable': 5, 'traditional': 1}",11596.0,audio/NGG/NGG_05_G.mp3,249273,19,survey-likert,,4.0,4.0,3.0,3.0,5.0,1.0,lazy,NGG_05,5.0,2.0,5.0,4.0
931,66,All,,0.0-4.0-17.0,"[0, 1, 2, 3, 4, 5]","{'local': 3, 'casual': 3, 'educated': 4, 'friendly': 3, 'dependable': 4, 'traditional': 2}",11763.0,audio/NGN/NGN_07_NG.mp3,262743,21,survey-likert,,3.0,3.0,4.0,3.0,4.0,2.0,proper,NGN_07,5.0,2.0,5.0,4.0
933,66,All,,0.0-4.0-19.0,"[0, 1, 2, 3, 4, 5]","{'local': 2, 'casual': 3, 'educated': 3, 'friendly': 3, 'dependable': 3, 'traditional': 1}",13207.0,audio/NL/NL_07_N.mp3,277202,23,survey-likert,,2.0,3.0,3.0,3.0,3.0,1.0,proper,NL_07,5.0,2.0,5.0,4.0
935,66,All,,0.0-4.0-21.0,"[0, 1, 2, 3, 4, 5]","{'local': 4, 'casual': 4, 'educated': 3, 'friendly': 3, 'dependable': 5, 'traditional': 1}",7369.0,audio/NL/NL_10_L.mp3,285934,25,survey-likert,,4.0,4.0,3.0,3.0,5.0,1.0,lazy,NL_10,5.0,2.0,5.0,4.0
937,66,All,,0.0-4.0-23.0,"[0, 1, 2, 3, 4, 5]","{'local': 3, 'casual': 1, 'educated': 4, 'friendly': 3, 'dependable': 5, 'traditional': 4}",9543.0,audio/NGG/NGG_02_NG.mp3,296785,27,survey-likert,,3.0,1.0,4.0,3.0,5.0,4.0,proper,NGG_02,5.0,2.0,5.0,4.0
939,66,All,,0.0-4.0-25.0,"[0, 1, 2, 3, 4, 5]","{'local': 3, 'casual': 2, 'educated': 4, 'friendly': 3, 'dependable': 4, 'traditional': 3}",9304.0,audio/NGG/NGG_09_G.mp3,308361,29,survey-likert,,3.0,2.0,4.0,3.0,4.0,3.0,lazy,NGG_09,5.0,2.0,5.0,4.0
941,66,All,,0.0-4.0-27.0,"[0, 1, 2, 3, 4, 5]","{'local': 4, 'casual': 3, 'educated': 4, 'friendly': 3, 'dependable': 4, 'traditional': 2}",11332.0,audio/NGN/NGN_08_N.mp3,321542,31,survey-likert,,4.0,3.0,4.0,3.0,4.0,2.0,lazy,NGN_08,5.0,2.0,5.0,4.0
943,66,All,,0.0-4.0-29.0,"[0, 1, 2, 3, 4, 5]","{'local': 4, 'casual': 2, 'educated': 4, 'friendly': 3, 'dependable': 4, 'traditional': 3}",12434.0,audio/NGG/NGG_06_G.mp3,335388,33,survey-likert,,4.0,2.0,4.0,3.0,4.0,3.0,lazy,NGG_06,5.0,2.0,5.0,4.0
945,66,All,,0.0-4.0-31.0,"[0, 1, 2, 3, 4, 5]","{'local': 4, 'casual': 2, 'educated': 4, 'friendly': 3, 'dependable': 4, 'traditional': 3}",10639.0,audio/NL/NL_08_L.mp3,347636,35,survey-likert,,4.0,2.0,4.0,3.0,4.0,3.0,lazy,NL_08,5.0,2.0,5.0,4.0
947,66,All,,0.0-4.0-33.0,"[0, 1, 2, 3, 4, 5]","{'local': 4, 'casual': 1, 'educated': 4, 'friendly': 3, 'dependable': 5, 'traditional': 4}",10582.0,audio/NGN/NGN_09_N.mp3,359785,37,survey-likert,,4.0,1.0,4.0,3.0,5.0,4.0,lazy,NGN_09,5.0,2.0,5.0,4.0
949,66,All,,0.0-4.0-35.0,"[0, 1, 2, 3, 4, 5]","{'local': 4, 'casual': 0, 'educated': 5, 'friendly': 3, 'dependable': 5, 'traditional': 5}",8740.0,audio/NGN/NGN_01_N.mp3,370407,39,survey-likert,,4.0,0.0,5.0,3.0,5.0,5.0,lazy,NGN_01,5.0,2.0,5.0,4.0
951,66,All,,0.0-4.0-37.0,"[0, 1, 2, 3, 4, 5]","{'local': 3, 'casual': 2, 'educated': 4, 'friendly': 3, 'dependable': 3, 'traditional': 3}",10982.0,audio/NGN/NGN_10_N.mp3,382839,41,survey-likert,,3.0,2.0,4.0,3.0,3.0,3.0,lazy,NGN_10,5.0,2.0,5.0,4.0
953,66,All,,0.0-4.0-39.0,"[0, 1, 2, 3, 4, 5]","{'local': 3, 'casual': 2, 'educated': 3, 'friendly': 3, 'dependable': 3, 'traditional': 3}",11180.0,audio/NL/NL_06_L.mp3,395087,43,survey-likert,,3.0,2.0,3.0,3.0,3.0,3.0,lazy,NL_06,5.0,2.0,5.0,4.0
957,66,All,,0.0-4.0-43.0,"[0, 1, 2, 3, 4, 5]","{'local': 4, 'casual': 4, 'educated': 3, 'friendly': 3, 'dependable': 5, 'traditional': 0}",9006.0,audio/NL/NL_02_L.mp3,416644,47,survey-likert,,4.0,4.0,3.0,3.0,5.0,0.0,lazy,NL_02,5.0,2.0,5.0,4.0
959,66,All,,0.0-4.0-45.0,"[0, 1, 2, 3, 4, 5]","{'local': 4, 'casual': 2, 'educated': 4, 'friendly': 3, 'dependable': 4, 'traditional': 3}",9179.0,audio/NL/NL_04_L.mp3,426988,49,survey-likert,,4.0,2.0,4.0,3.0,4.0,3.0,lazy,NL_04,5.0,2.0,5.0,4.0
961,66,All,,0.0-4.0-47.0,"[0, 1, 2, 3, 4, 5]","{'local': 4, 'casual': 5, 'educated': 4, 'friendly': 4, 'dependable': 5, 'traditional': 0}",8841.0,audio/NGN/NGN_03_N.mp3,437268,51,survey-likert,,4.0,5.0,4.0,4.0,5.0,0.0,lazy,NGN_03,5.0,2.0,5.0,4.0
967,66,All,,0.0-4.0-53.0,"[0, 1, 2, 3, 4, 5]","{'local': 2, 'casual': 4, 'educated': 4, 'friendly': 3, 'dependable': 4, 'traditional': 1}",8733.0,audio/NGN/NGN_05_NG.mp3,469997,57,survey-likert,,2.0,4.0,4.0,3.0,4.0,1.0,proper,NGN_05,5.0,2.0,5.0,4.0
969,66,All,,0.0-4.0-55.0,"[0, 1, 2, 3, 4, 5]","{'local': 4, 'casual': 4, 'educated': 3, 'friendly': 3, 'dependable': 4, 'traditional': 0}",11371.0,audio/NGG/NGG_10_G.mp3,483195,59,survey-likert,,4.0,4.0,3.0,3.0,4.0,0.0,lazy,NGG_10,5.0,2.0,5.0,4.0
971,66,All,,0.0-4.0-57.0,"[0, 1, 2, 3, 4, 5]","{'local': 4, 'casual': 4, 'educated': 4, 'friendly': 3, 'dependable': 5, 'traditional': 1}",7972.0,audio/NGG/NGG_01_NG.mp3,492566,61,survey-likert,,4.0,4.0,4.0,3.0,5.0,1.0,proper,NGG_01,5.0,2.0,5.0,4.0
973,66,All,,0.0-4.0-59.0,"[0, 1, 2, 3, 4, 5]","{'local': 4, 'casual': 4, 'educated': 3, 'friendly': 3, 'dependable': 5, 'traditional': 1}",9669.0,audio/NGN/NGN_02_N.mp3,503335,63,survey-likert,,4.0,4.0,3.0,3.0,5.0,1.0,lazy,NGN_02,5.0,2.0,5.0,4.0
1055,89,All,,0.0-4.0-1.0,"[0, 1, 2, 3, 4, 5]","{'local': 4, 'casual': 0, 'educated': 5, 'friendly': 3, 'dependable': 4, 'traditional': 3}",26880.0,audio/NGG/NGG_06_G.mp3,49763,5,survey-likert,,4.0,0.0,5.0,3.0,4.0,3.0,lazy,NGG_06,1.0,4.0,1.0,1.0
1057,89,All,,0.0-4.0-3.0,"[0, 1, 2, 3, 4, 5]","{'local': 2, 'casual': 4, 'educated': 2, 'friendly': 3, 'dependable': 2, 'traditional': 1}",25831.0,audio/NGG/NGG_05_G.mp3,76868,7,survey-likert,,2.0,4.0,2.0,3.0,2.0,1.0,lazy,NGG_05,1.0,4.0,1.0,1.0
1059,89,All,,0.0-4.0-5.0,"[0, 1, 2, 3, 4, 5]","{'local': 4, 'casual': 0, 'educated': 5, 'friendly': 4, 'dependable': 4, 'traditional': 3}",16144.0,audio/NGN/NGN_05_N.mp3,94749,9,survey-likert,,4.0,0.0,5.0,4.0,4.0,3.0,lazy,NGN_05,1.0,4.0,1.0,1.0
1061,89,All,,0.0-4.0-7.0,"[0, 1, 2, 3, 4, 5]","{'local': 3, 'casual': 2, 'educated': 3, 'friendly': 2, 'dependable': 3, 'traditional': 2}",14734.0,audio/NGG/NGG_03_G.mp3,110886,11,survey-likert,,3.0,2.0,3.0,2.0,3.0,2.0,lazy,NGG_03,1.0,4.0,1.0,1.0
1063,89,All,,0.0-4.0-9.0,"[0, 1, 2, 3, 4, 5]","{'local': 1, 'casual': 4, 'educated': 2, 'friendly': 2, 'dependable': 1, 'traditional': 2}",21917.0,audio/NGN/NGN_08_NG.mp3,134551,13,survey-likert,,1.0,4.0,2.0,2.0,1.0,2.0,proper,NGN_08,1.0,4.0,1.0,1.0
1065,89,All,,0.0-4.0-11.0,"[0, 1, 2, 3, 4, 5]","{'local': 0, 'casual': 4, 'educated': 2, 'friendly': 2, 'dependable': 1, 'traditional': 1}",17144.0,audio/NL/NL_06_N.mp3,152656,15,survey-likert,,0.0,4.0,2.0,2.0,1.0,1.0,proper,NL_06,1.0,4.0,1.0,1.0
1069,89,All,,0.0-4.0-15.0,"[0, 1, 2, 3, 4, 5]","{'local': 4, 'casual': 1, 'educated': 4, 'friendly': 4, 'dependable': 4, 'traditional': 4}",16193.0,audio/NGN/NGN_09_N.mp3,181378,19,survey-likert,,4.0,1.0,4.0,4.0,4.0,4.0,lazy,NGN_09,1.0,4.0,1.0,1.0
1071,89,All,,0.0-4.0-17.0,"[0, 1, 2, 3, 4, 5]","{'local': 0, 'casual': 5, 'educated': 0, 'friendly': 2, 'dependable': 1, 'traditional': 0}",14335.0,audio/NL/NL_10_N.mp3,197330,21,survey-likert,,0.0,5.0,0.0,2.0,1.0,0.0,proper,NL_10,1.0,4.0,1.0,1.0
1073,89,All,,0.0-4.0-19.0,"[0, 1, 2, 3, 4, 5]","{'local': 3, 'casual': 1, 'educated': 3, 'friendly': 2, 'dependable': 3, 'traditional': 3}",16012.0,audio/NGG/NGG_09_NG.mp3,216110,23,survey-likert,,3.0,1.0,3.0,2.0,3.0,3.0,proper,NGG_09,1.0,4.0,1.0,1.0
1075,89,All,,0.0-4.0-21.0,"[0, 1, 2, 3, 4, 5]","{'local': 2, 'casual': 5, 'educated': 0, 'friendly': 3, 'dependable': 2, 'traditional': 1}",23961.0,audio/NGG/NGG_04_G.mp3,241194,25,survey-likert,,2.0,5.0,0.0,3.0,2.0,1.0,lazy,NGG_04,1.0,4.0,1.0,1.0
1079,89,All,,0.0-4.0-25.0,"[0, 1, 2, 3, 4, 5]","{'local': 5, 'casual': 0, 'educated': 5, 'friendly': 4, 'dependable': 4, 'traditional': 4}",10499.0,audio/NGG/NGG_01_NG.mp3,262294,29,survey-likert,,5.0,0.0,5.0,4.0,4.0,4.0,proper,NGG_01,1.0,4.0,1.0,1.0
1081,89,All,,0.0-4.0-27.0,"[0, 1, 2, 3, 4, 5]","{'local': 1, 'casual': 3, 'educated': 2, 'friendly': 2, 'dependable': 2, 'traditional': 1}",12225.0,audio/NL/NL_03_L.mp3,275655,31,survey-likert,,1.0,3.0,2.0,2.0,2.0,1.0,lazy,NL_03,1.0,4.0,1.0,1.0
1083,89,All,,0.0-4.0-29.0,"[0, 1, 2, 3, 4, 5]","{'local': 1, 'casual': 1, 'educated': 3, 'friendly': 3, 'dependable': 2, 'traditional': 2}",20303.0,audio/NL/NL_09_L.mp3,297246,33,survey-likert,,1.0,1.0,3.0,3.0,2.0,2.0,lazy,NL_09,1.0,4.0,1.0,1.0
1085,89,All,,0.0-4.0-31.0,"[0, 1, 2, 3, 4, 5]","{'local': 0, 'casual': 5, 'educated': 1, 'friendly': 2, 'dependable': 1, 'traditional': 1}",15936.0,audio/NGN/NGN_04_NG.mp3,315017,35,survey-likert,,0.0,5.0,1.0,2.0,1.0,1.0,proper,NGN_04,1.0,4.0,1.0,1.0
1087,89,All,,0.0-4.0-33.0,"[0, 1, 2, 3, 4, 5]","{'local': 2, 'casual': 4, 'educated': 3, 'friendly': 3, 'dependable': 3, 'traditional': 1}",12330.0,audio/NGG/NGG_08_G.mp3,328724,37,survey-likert,,2.0,4.0,3.0,3.0,3.0,1.0,lazy,NGG_08,1.0,4.0,1.0,1.0
1089,89,All,,0.0-4.0-35.0,"[0, 1, 2, 3, 4, 5]","{'local': 0, 'casual': 5, 'educated': 1, 'friendly': 1, 'dependable': 1, 'traditional': 1}",14323.0,audio/NGG/NGG_10_NG.mp3,345356,39,survey-likert,,0.0,5.0,1.0,1.0,1.0,1.0,proper,NGG_10,1.0,4.0,1.0,1.0
1091,89,All,,0.0-4.0-37.0,"[0, 1, 2, 3, 4, 5]","{'local': 2, 'casual': 4, 'educated': 3, 'friendly': 4, 'dependable': 3, 'traditional': 3}",17057.0,audio/NGN/NGN_03_N.mp3,363854,41,survey-likert,,2.0,4.0,3.0,4.0,3.0,3.0,lazy,NGN_03,1.0,4.0,1.0,1.0
1093,89,All,,0.0-4.0-39.0,"[0, 1, 2, 3, 4, 5]","{'local': 2, 'casual': 0, 'educated': 5, 'friendly': 2, 'dependable': 3, 'traditional': 4}",14009.0,audio/NGN/NGN_10_N.mp3,379329,43,survey-likert,,2.0,0.0,5.0,2.0,3.0,4.0,lazy,NGN_10,1.0,4.0,1.0,1.0
1095,89,All,,0.0-4.0-41.0,"[0, 1, 2, 3, 4, 5]","{'local': 0, 'casual': 2, 'educated': 1, 'friendly': 2, 'dependable': 2, 'traditional': 1}",15632.0,audio/NGN/NGN_07_N.mp3,396815,45,survey-likert,,0.0,2.0,1.0,2.0,2.0,1.0,lazy,NGN_07,1.0,4.0,1.0,1.0
1097,89,All,,0.0-4.0-43.0,"[0, 1, 2, 3, 4, 5]","{'local': 2, 'casual': 2, 'educated': 3, 'friendly': 3, 'dependable': 2, 'traditional': 2}",13361.0,audio/NL/NL_08_L.mp3,411863,47,survey-likert,,2.0,2.0,3.0,3.0,2.0,2.0,lazy,NL_08,1.0,4.0,1.0,1.0
1099,89,All,,0.0-4.0-45.0,"[0, 1, 2, 3, 4, 5]","{'local': 3, 'casual': 0, 'educated': 4, 'friendly': 1, 'dependable': 2, 'traditional': 4}",11005.0,audio/NGN/NGN_01_NG.mp3,424996,49,survey-likert,,3.0,0.0,4.0,1.0,2.0,4.0,proper,NGN_01,1.0,4.0,1.0,1.0
1101,89,All,,0.0-4.0-47.0,"[0, 1, 2, 3, 4, 5]","{'local': 1, 'casual': 3, 'educated': 2, 'friendly': 2, 'dependable': 2, 'traditional': 2}",14909.0,audio/NGN/NGN_02_N.mp3,441053,51,survey-likert,,1.0,3.0,2.0,2.0,2.0,2.0,lazy,NGN_02,1.0,4.0,1.0,1.0
1103,89,All,,0.0-4.0-49.0,"[0, 1, 2, 3, 4, 5]","{'local': 3, 'casual': 4, 'educated': 3, 'friendly': 1, 'dependable': 1, 'traditional': 4}",16280.0,audio/NL/NL_04_L.mp3,458652,53,survey-likert,,3.0,4.0,3.0,1.0,1.0,4.0,lazy,NL_04,1.0,4.0,1.0,1.0
1105,89,All,,0.0-4.0-51.0,"[0, 1, 2, 3, 4, 5]","{'local': 2, 'casual': 4, 'educated': 3, 'friendly': 1, 'dependable': 2, 'traditional': 2}",18485.0,audio/NL/NL_01_L.mp3,478744,55,survey-likert,,2.0,4.0,3.0,1.0,2.0,2.0,lazy,NL_01,1.0,4.0,1.0,1.0
1107,89,All,,0.0-4.0-53.0,"[0, 1, 2, 3, 4, 5]","{'local': 3, 'casual': 1, 'educated': 5, 'friendly': 3, 'dependable': 3, 'traditional': 4}",22856.0,audio/NGG/NGG_02_NG.mp3,502940,57,survey-likert,,3.0,1.0,5.0,3.0,3.0,4.0,proper,NGG_02,1.0,4.0,1.0,1.0
1111,89,All,,0.0-4.0-57.0,"[0, 1, 2, 3, 4, 5]","{'local': 4, 'casual': 3, 'educated': 3, 'friendly': 2, 'dependable': 3, 'traditional': 2}",17821.0,audio/NL/NL_02_L.mp3,532095,61,survey-likert,,4.0,3.0,3.0,2.0,3.0,2.0,lazy,NL_02,1.0,4.0,1.0,1.0
1113,89,All,,0.0-4.0-59.0,"[0, 1, 2, 3, 4, 5]","{'local': 0, 'casual': 3, 'educated': 0, 'friendly': 3, 'dependable': 1, 'traditional': 0}",14550.0,audio/NL/NL_07_N.mp3,547925,63,survey-likert,,0.0,3.0,0.0,3.0,1.0,0.0,proper,NL_07,1.0,4.0,1.0,1.0
1195,104,All,,0.0-4.0-1.0,"[0, 1, 2, 3, 4, 5]","{'local': 2, 'casual': 4, 'educated': 2, 'friendly': 3, 'dependable': 3, 'traditional': 3}",11508.0,audio/NGN/NGN_08_N.mp3,33479,5,survey-likert,,2.0,4.0,2.0,3.0,3.0,3.0,lazy,NGN_08,5.0,3.0,5.0,4.0
1197,104,All,,0.0-4.0-3.0,"[0, 1, 2, 3, 4, 5]","{'local': 4, 'casual': 2, 'educated': 3, 'friendly': 3, 'dependable': 4, 'traditional': 2}",11085.0,audio/NL/NL_09_N.mp3,45870,7,survey-likert,,4.0,2.0,3.0,3.0,4.0,2.0,proper,NL_09,5.0,3.0,5.0,4.0
1201,104,All,,0.0-4.0-7.0,"[0, 1, 2, 3, 4, 5]","{'local': 1, 'casual': 3, 'educated': 2, 'friendly': 4, 'dependable': 2, 'traditional': 1}",10482.0,audio/NGN/NGN_07_N.mp3,70477,11,survey-likert,,1.0,3.0,2.0,4.0,2.0,1.0,lazy,NGN_07,5.0,3.0,5.0,4.0
1203,104,All,,0.0-4.0-9.0,"[0, 1, 2, 3, 4, 5]","{'local': 4, 'casual': 2, 'educated': 3, 'friendly': 2, 'dependable': 3, 'traditional': 0}",13197.0,audio/NGG/NGG_09_G.mp3,85982,13,survey-likert,,4.0,2.0,3.0,2.0,3.0,0.0,lazy,NGG_09,5.0,3.0,5.0,4.0
1205,104,All,,0.0-4.0-11.0,"[0, 1, 2, 3, 4, 5]","{'local': 4, 'casual': 5, 'educated': 3, 'friendly': 4, 'dependable': 4, 'traditional': 1}",11339.0,audio/NGG/NGG_02_NG.mp3,98646,15,survey-likert,,4.0,5.0,3.0,4.0,4.0,1.0,proper,NGG_02,5.0,3.0,5.0,4.0
1207,104,All,,0.0-4.0-13.0,"[0, 1, 2, 3, 4, 5]","{'local': 4, 'casual': 1, 'educated': 4, 'friendly': 3, 'dependable': 3, 'traditional': 1}",13338.0,audio/NGN/NGN_05_N.mp3,113726,17,survey-likert,,4.0,1.0,4.0,3.0,3.0,1.0,lazy,NGN_05,5.0,3.0,5.0,4.0
1209,104,All,,0.0-4.0-15.0,"[0, 1, 2, 3, 4, 5]","{'local': 3, 'casual': 3, 'educated': 2, 'friendly': 3, 'dependable': 3, 'traditional': 2}",11082.0,audio/NGG/NGG_06_NG.mp3,126229,19,survey-likert,,3.0,3.0,2.0,3.0,3.0,2.0,proper,NGG_06,5.0,3.0,5.0,4.0
1211,104,All,,0.0-4.0-17.0,"[0, 1, 2, 3, 4, 5]","{'local': 3, 'casual': 2, 'educated': 4, 'friendly': 3, 'dependable': 4, 'traditional': 4}",10180.0,audio/NGN/NGN_10_N.mp3,137877,21,survey-likert,,3.0,2.0,4.0,3.0,4.0,4.0,lazy,NGN_10,5.0,3.0,5.0,4.0
1213,104,All,,0.0-4.0-19.0,"[0, 1, 2, 3, 4, 5]","{'local': 5, 'casual': 4, 'educated': 3, 'friendly': 3, 'dependable': 4, 'traditional': 1}",12840.0,audio/NGG/NGG_04_G.mp3,151837,23,survey-likert,,5.0,4.0,3.0,3.0,4.0,1.0,lazy,NGG_04,5.0,3.0,5.0,4.0
1215,104,All,,0.0-4.0-21.0,"[0, 1, 2, 3, 4, 5]","{'local': 3, 'casual': 4, 'educated': 3, 'friendly': 4, 'dependable': 4, 'traditional': 4}",9500.0,audio/NL/NL_07_L.mp3,162565,25,survey-likert,,3.0,4.0,3.0,4.0,4.0,4.0,lazy,NL_07,5.0,3.0,5.0,4.0
1217,104,All,,0.0-4.0-23.0,"[0, 1, 2, 3, 4, 5]","{'local': 4, 'casual': 3, 'educated': 2, 'friendly': 3, 'dependable': 2, 'traditional': 2}",18293.0,audio/NGG/NGG_01_G.mp3,182238,27,survey-likert,,4.0,3.0,2.0,3.0,2.0,2.0,lazy,NGG_01,5.0,3.0,5.0,4.0
1219,104,All,,0.0-4.0-25.0,"[0, 1, 2, 3, 4, 5]","{'local': 4, 'casual': 3, 'educated': 2, 'friendly': 3, 'dependable': 4, 'traditional': 1}",8081.0,audio/NGG/NGG_08_G.mp3,191677,29,survey-likert,,4.0,3.0,2.0,3.0,4.0,1.0,lazy,NGG_08,5.0,3.0,5.0,4.0
1221,104,All,,0.0-4.0-27.0,"[0, 1, 2, 3, 4, 5]","{'local': 4, 'casual': 3, 'educated': 3, 'friendly': 2, 'dependable': 2, 'traditional': 0}",9585.0,audio/NL/NL_03_L.mp3,202381,31,survey-likert,,4.0,3.0,3.0,2.0,2.0,0.0,lazy,NL_03,5.0,3.0,5.0,4.0
1223,104,All,,0.0-4.0-29.0,"[0, 1, 2, 3, 4, 5]","{'local': 4, 'casual': 2, 'educated': 2, 'friendly': 3, 'dependable': 2, 'traditional': 1}",12729.0,audio/NGG/NGG_05_NG.mp3,216765,33,survey-likert,,4.0,2.0,2.0,3.0,2.0,1.0,proper,NGG_05,5.0,3.0,5.0,4.0
1225,104,All,,0.0-4.0-31.0,"[0, 1, 2, 3, 4, 5]","{'local': 4, 'casual': 2, 'educated': 2, 'friendly': 3, 'dependable': 3, 'traditional': 1}",11115.0,audio/NGN/NGN_04_NG.mp3,229701,35,survey-likert,,4.0,2.0,2.0,3.0,3.0,1.0,proper,NGN_04,5.0,3.0,5.0,4.0
1227,104,All,,0.0-4.0-33.0,"[0, 1, 2, 3, 4, 5]","{'local': 5, 'casual': 3, 'educated': 3, 'friendly': 4, 'dependable': 4, 'traditional': 4}",8987.0,audio/NL/NL_01_L.mp3,240294,37,survey-likert,,5.0,3.0,3.0,4.0,4.0,4.0,lazy,NL_01,5.0,3.0,5.0,4.0
1229,104,All,,0.0-4.0-35.0,"[0, 1, 2, 3, 4, 5]","{'local': 4, 'casual': 1, 'educated': 1, 'friendly': 1, 'dependable': 2, 'traditional': 4}",12474.0,audio/NGG/NGG_10_G.mp3,254622,39,survey-likert,,4.0,1.0,1.0,1.0,2.0,4.0,lazy,NGG_10,5.0,3.0,5.0,4.0
1231,104,All,,0.0-4.0-37.0,"[0, 1, 2, 3, 4, 5]","{'local': 4, 'casual': 1, 'educated': 1, 'friendly': 3, 'dependable': 2, 'traditional': 0}",10442.0,audio/NL/NL_02_N.mp3,266190,41,survey-likert,,4.0,1.0,1.0,3.0,2.0,0.0,proper,NL_02,5.0,3.0,5.0,4.0
1233,104,All,,0.0-4.0-39.0,"[0, 1, 2, 3, 4, 5]","{'local': 5, 'casual': 1, 'educated': 2, 'friendly': 2, 'dependable': 3, 'traditional': 1}",10592.0,audio/NL/NL_04_L.mp3,277949,43,survey-likert,,5.0,1.0,2.0,2.0,3.0,1.0,lazy,NL_04,5.0,3.0,5.0,4.0
1235,104,All,,0.0-4.0-41.0,"[0, 1, 2, 3, 4, 5]","{'local': 4, 'casual': 4, 'educated': 2, 'friendly': 4, 'dependable': 3, 'traditional': 1}",12056.0,audio/NGN/NGN_02_N.mp3,291181,45,survey-likert,,4.0,4.0,2.0,4.0,3.0,1.0,lazy,NGN_02,5.0,3.0,5.0,4.0
1237,104,All,,0.0-4.0-43.0,"[0, 1, 2, 3, 4, 5]","{'local': 4, 'casual': 4, 'educated': 2, 'friendly': 3, 'dependable': 4, 'traditional': 1}",18914.0,audio/NGG/NGG_03_G.mp3,311320,47,survey-likert,,4.0,4.0,2.0,3.0,4.0,1.0,lazy,NGG_03,5.0,3.0,5.0,4.0
1239,104,All,,0.0-4.0-45.0,"[0, 1, 2, 3, 4, 5]","{'local': 4, 'casual': 0, 'educated': 2, 'friendly': 3, 'dependable': 3, 'traditional': 4}",9534.0,audio/NL/NL_08_L.mp3,322520,49,survey-likert,,4.0,0.0,2.0,3.0,3.0,4.0,lazy,NL_08,5.0,3.0,5.0,4.0
1241,104,All,,0.0-4.0-47.0,"[0, 1, 2, 3, 4, 5]","{'local': 4, 'casual': 1, 'educated': 4, 'friendly': 2, 'dependable': 4, 'traditional': 5}",8945.0,audio/NL/NL_06_N.mp3,332440,51,survey-likert,,4.0,1.0,4.0,2.0,4.0,5.0,proper,NL_06,5.0,3.0,5.0,4.0
1243,104,All,,0.0-4.0-49.0,"[0, 1, 2, 3, 4, 5]","{'local': 5, 'casual': 4, 'educated': 3, 'friendly': 4, 'dependable': 2, 'traditional': 1}",8652.0,audio/NL/NL_10_L.mp3,342488,53,survey-likert,,5.0,4.0,3.0,4.0,2.0,1.0,lazy,NL_10,5.0,3.0,5.0,4.0
1245,104,All,,0.0-4.0-51.0,"[0, 1, 2, 3, 4, 5]","{'local': 5, 'casual': 2, 'educated': 4, 'friendly': 3, 'dependable': 4, 'traditional': 1}",8503.0,audio/NGN/NGN_03_N.mp3,352408,55,survey-likert,,5.0,2.0,4.0,3.0,4.0,1.0,lazy,NGN_03,5.0,3.0,5.0,4.0
