workerid,proliferate.condition,accuracy,internal_node_id,question_order,response,rt,stimulus,time_elapsed,trial_index,trial_type,error
87,All,,0.0-0.0,,0,372648,"<p style=""width: 1000px; margin-bottom: -250px"">
    您被邀请参加一项斯坦福大学的研究。
    <BR><BR>在此实验中，您会完成一项跟语言有关的任务，例如读或听一些字、描述图片或场景、造句、或完成简单的语言游戏。
    <BR><BR>本研究中没有已知的风险、成本或不适。
    <BR><BR>
    如果您同意参与这项研究，请继续。
    <BR><BR>
    <BR><BR>
    </p>
    <p style=""width: 1000px; font-size: 9pt; position: relative; top: 330px; padding-bottom: 30px; text-align: justify"">
    如果您已读完此表格并决定参与此项目，请明白您的参与是自愿的，您有权随时撤回您的同意或停止参与，而不会受到惩罚或失去您原本可以享有的利益有权。 您有权拒绝回答任何问题。 您的个人隐私将在研究产生的所有已发布和书面数据中得到保护。
    <BR><BR>联系信息：问题、疑虑或投诉：如果您对本研究、其程序、风险和益处有任何问题、疑虑或投诉，请用邮箱联系Ting Lin(linting@stanford.edu)或者Judith Degen教授(jdegen@stanford.edu)。如果您对这项研究的进行方式不满意，或者如果您对研究或您作为参与者的权利有任何疑虑、投诉或一般问题，请联系斯坦福机构审查委员会 (IRB) 发言与独立于研究团队的人联系 +1(650)-723-2480 或拨打免费电话 1-866-680-2906。 您也可以致函 Stanford IRB, Stanford University, Stanford, CA 94305-5401 或发送电子邮件至 irbnonmed@stanford.edu。
    </p>",372829,0,html-button-response,
87,All,,0.0-1.0,,0,10479,"
            <p>本研究的调查对象为母语为粤语的人。您可以将此链接分享给其他符合条件的人，但请不要多次参与本研究，您只会获得一次酬劳。</p>
            <p>本实验使用简体中文，将用时大约15分钟，完成后您将按公布的标准获得酬劳。</p>
            <p>请点击 ""继续""。</p>",383309,1,html-button-response,
87,All,,0.0-2.0,,0,9921,"
            <p>请确保您在安静的房间中用电脑完成本实验。</p>
            <p>在本实验中，您将聆听简短的音频片段，每段音频都是一名志愿者朗读的一个语段。</p>
            <p>听完每段音频后，您需要回答一些判断题。</p>",393231,2,html-button-response,
87,All,,0.0-3.0,,0,47799,"<p>实验开始前，请调整音量，确保您可以非常清楚地听到以下音频。</p>
    <p><audio controls><source src=""./audio/soundcheck.mp3"" type=""audio/mp3""></audio></p>
    <br><p>此外，以下音频将于实验过程中会出现数次，请遵守音频中的指示，<br>那一轮的每一道判断题<b>都请选择音频中的数字</b>。</p>
    <p><audio controls><source src=""./audio/attention_check_1.mp3"" type=""audio/mp3""></audio></p",441041,3,html-button-response,
87,All,,0.0-4.0-0.0,,,,audio/NL/NL_07_N.mp3,442322,4,audio-keyboard-response,
87,All,,0.0-4.0-1.0,"[0, 1, 2, 3, 4, 5]","{'local': 3, 'casual': 2, 'educated': 3, 'friendly': 3, 'dependable': 2, 'traditional': 3}",54986,,497316,5,survey-likert,
87,All,,0.0-4.0-2.0,,,,audio/NGN/NGN_10_N.mp3,498861,6,audio-keyboard-response,
87,All,,0.0-4.0-3.0,"[0, 1, 2, 3, 4, 5]","{'local': 1, 'casual': 2, 'educated': 3, 'friendly': 2, 'dependable': 3, 'traditional': 2}",32032,,530897,7,survey-likert,
87,All,,0.0-4.0-4.0,,,,audio/attention_check_6.mp3,533881,8,audio-keyboard-response,
87,All,,0.0-4.0-5.0,"[0, 1, 2, 3, 4, 5]","{'local': 5, 'casual': 5, 'educated': 5, 'friendly': 5, 'dependable': 5, 'traditional': 5}",8062,,541948,9,survey-likert,
87,All,,0.0-4.0-6.0,,,,audio/NGN/NGN_02_NG.mp3,543531,10,audio-keyboard-response,
87,All,,0.0-4.0-7.0,"[0, 1, 2, 3, 4, 5]","{'local': 1, 'casual': 1, 'educated': 3, 'friendly': 3, 'dependable': 3, 'traditional': 4}",30019,,573554,11,survey-likert,
87,All,,0.0-4.0-8.0,,,,audio/NL/NL_04_L.mp3,574732,12,audio-keyboard-response,
87,All,,0.0-4.0-9.0,"[0, 1, 2, 3, 4, 5]","{'local': 1, 'casual': 2, 'educated': 2, 'friendly': 1, 'dependable': 2, 'traditional': 1}",18965,,593701,13,survey-likert,
87,All,,0.0-4.0-10.0,,,,audio/NL/NL_08_N.mp3,595481,14,audio-keyboard-response,
87,All,,0.0-4.0-11.0,"[0, 1, 2, 3, 4, 5]","{'local': 2, 'casual': 3, 'educated': 3, 'friendly': 2, 'dependable': 3, 'traditional': 4}",13130,,608615,15,survey-likert,
87,All,,0.0-4.0-12.0,,,,audio/attention_check_1.mp3,611571,16,audio-keyboard-response,
87,All,,0.0-4.0-13.0,"[0, 1, 2, 3, 4, 5]","{'local': 0, 'casual': 0, 'educated': 0, 'friendly': 0, 'dependable': 0, 'traditional': 0}",11691,,623266,17,survey-likert,
87,All,,0.0-4.0-14.0,,,,audio/NL/NL_10_N.mp3,624881,18,audio-keyboard-response,
87,All,,0.0-4.0-15.0,"[0, 1, 2, 3, 4, 5]","{'local': 3, 'casual': 2, 'educated': 3, 'friendly': 2, 'dependable': 2, 'traditional': 4}",20505,,645390,19,survey-likert,
87,All,,0.0-4.0-16.0,,,,audio/NGN/NGN_09_NG.mp3,646961,20,audio-keyboard-response,
87,All,,0.0-4.0-17.0,"[0, 1, 2, 3, 4, 5]","{'local': 3, 'casual': 1, 'educated': 4, 'friendly': 2, 'dependable': 3, 'traditional': 1}",26181,,673147,21,survey-likert,
87,All,,0.0-4.0-18.0,,,,audio/attention_check_4.mp3,676421,22,audio-keyboard-response,
87,All,,0.0-4.0-19.0,"[0, 1, 2, 3, 4, 5]","{'local': 3, 'casual': 3, 'educated': 3, 'friendly': 3, 'dependable': 3, 'traditional': 3}",7763,,684189,23,survey-likert,
87,All,,0.0-4.0-20.0,,,,audio/NGG/NGG_06_NG.mp3,685611,24,audio-keyboard-response,
87,All,,0.0-4.0-21.0,"[0, 1, 2, 3, 4, 5]","{'local': 1, 'casual': 2, 'educated': 2, 'friendly': 3, 'dependable': 2, 'traditional': 2}",30779,,716394,25,survey-likert,
87,All,,0.0-4.0-22.0,,,,audio/NL/NL_03_N.mp3,717371,26,audio-keyboard-response,
87,All,,0.0-4.0-23.0,"[0, 1, 2, 3, 4, 5]","{'local': 1, 'casual': 4, 'educated': 2, 'friendly': 3, 'dependable': 2, 'traditional': 4}",15790,,733165,27,survey-likert,
87,All,,0.0-4.0-24.0,,,,audio/NGG/NGG_09_NG.mp3,735952,28,audio-keyboard-response,
87,All,,0.0-4.0-25.0,"[0, 1, 2, 3, 4, 5]","{'local': 2, 'casual': 0, 'educated': 3, 'friendly': 2, 'dependable': 3, 'traditional': 3}",15293,,751249,29,survey-likert,
87,All,,0.0-4.0-26.0,,,,audio/NGG/NGG_03_NG.mp3,752851,30,audio-keyboard-response,
87,All,,0.0-4.0-27.0,"[0, 1, 2, 3, 4, 5]","{'local': 1, 'casual': 3, 'educated': 1, 'friendly': 2, 'dependable': 2, 'traditional': 4}",16517,,769372,31,survey-likert,
87,All,,0.0-4.0-28.0,,,,audio/NGN/NGN_01_N.mp3,771291,32,audio-keyboard-response,
87,All,,0.0-4.0-29.0,"[0, 1, 2, 3, 4, 5]","{'local': 2, 'casual': 0, 'educated': 4, 'friendly': 2, 'dependable': 2, 'traditional': 0}",20200,,791495,33,survey-likert,
87,All,,0.0-4.0-30.0,,,,audio/NGN/NGN_08_N.mp3,793371,34,audio-keyboard-response,
87,All,,0.0-4.0-31.0,"[0, 1, 2, 3, 4, 5]","{'local': 0, 'casual': 4, 'educated': 1, 'friendly': 1, 'dependable': 1, 'traditional': 1}",23989,,817364,35,survey-likert,
87,All,,0.0-4.0-32.0,,,,audio/NL/NL_09_L.mp3,818671,36,audio-keyboard-response,
87,All,,0.0-4.0-33.0,"[0, 1, 2, 3, 4, 5]","{'local': 1, 'casual': 1, 'educated': 3, 'friendly': 2, 'dependable': 3, 'traditional': 1}",16820,,835495,37,survey-likert,
87,All,,0.0-4.0-34.0,,,,audio/NGN/NGN_03_N.mp3,836920,38,audio-keyboard-response,
87,All,,0.0-4.0-35.0,"[0, 1, 2, 3, 4, 5]","{'local': 3, 'casual': 4, 'educated': 2, 'friendly': 3, 'dependable': 3, 'traditional': 4}",23015,,859940,39,survey-likert,
87,All,,0.0-4.0-36.0,,,,audio/NL/NL_06_N.mp3,860931,40,audio-keyboard-response,
87,All,,0.0-4.0-37.0,"[0, 1, 2, 3, 4, 5]","{'local': 2, 'casual': 0, 'educated': 3, 'friendly': 2, 'dependable': 3, 'traditional': 0}",15720,,876655,41,survey-likert,
87,All,,0.0-4.0-38.0,,,,audio/NGG/NGG_10_NG.mp3,879071,42,audio-keyboard-response,
87,All,,0.0-4.0-39.0,"[0, 1, 2, 3, 4, 5]","{'local': 1, 'casual': 4, 'educated': 1, 'friendly': 2, 'dependable': 2, 'traditional': 5}",30816,,909892,43,survey-likert,
87,All,,0.0-4.0-40.0,,,,audio/NL/NL_01_N.mp3,911771,44,audio-keyboard-response,
87,All,,0.0-4.0-41.0,"[0, 1, 2, 3, 4, 5]","{'local': 3, 'casual': 5, 'educated': 3, 'friendly': 4, 'dependable': 3, 'traditional': 5}",18987,,930760,45,survey-likert,
87,All,,0.0-4.0-42.0,,,,audio/NGG/NGG_01_G.mp3,932182,46,audio-keyboard-response,
87,All,,0.0-4.0-43.0,"[0, 1, 2, 3, 4, 5]","{'local': 1, 'casual': 4, 'educated': 2, 'friendly': 2, 'dependable': 2, 'traditional': 4}",14377,,946563,47,survey-likert,
87,All,,0.0-4.0-44.0,,,,audio/NL/NL_02_L.mp3,947561,48,audio-keyboard-response,
87,All,,0.0-4.0-45.0,"[0, 1, 2, 3, 4, 5]","{'local': 2, 'casual': 5, 'educated': 3, 'friendly': 3, 'dependable': 3, 'traditional': 5}",15528,,963094,49,survey-likert,
87,All,,0.0-4.0-46.0,,,,audio/NGG/NGG_02_G.mp3,964282,50,audio-keyboard-response,
87,All,,0.0-4.0-47.0,"[0, 1, 2, 3, 4, 5]","{'local': 1, 'casual': 4, 'educated': 3, 'friendly': 3, 'dependable': 3, 'traditional': 4}",15139,,979425,51,survey-likert,
87,All,,0.0-4.0-48.0,,,,audio/NGN/NGN_04_NG.mp3,981242,52,audio-keyboard-response,
87,All,,0.0-4.0-49.0,"[0, 1, 2, 3, 4, 5]","{'local': 1, 'casual': 4, 'educated': 2, 'friendly': 2, 'dependable': 3, 'traditional': 4}",19229,,1000476,53,survey-likert,
87,All,,0.0-4.0-50.0,,,,audio/NGN/NGN_05_NG.mp3,1002401,54,audio-keyboard-response,
87,All,,0.0-4.0-51.0,"[0, 1, 2, 3, 4, 5]","{'local': 2, 'casual': 1, 'educated': 4, 'friendly': 2, 'dependable': 3, 'traditional': 2}",15940,,1018344,55,survey-likert,
87,All,,0.0-4.0-52.0,,,,audio/NGG/NGG_04_NG.mp3,1019792,56,audio-keyboard-response,
87,All,,0.0-4.0-53.0,"[0, 1, 2, 3, 4, 5]","{'local': 1, 'casual': 4, 'educated': 2, 'friendly': 3, 'dependable': 3, 'traditional': 5}",14159,,1033954,57,survey-likert,
87,All,,0.0-4.0-54.0,,,,audio/NGG/NGG_05_G.mp3,1035212,58,audio-keyboard-response,
87,All,,0.0-4.0-55.0,"[0, 1, 2, 3, 4, 5]","{'local': 2, 'casual': 3, 'educated': 3, 'friendly': 2, 'dependable': 3, 'traditional': 4}",11805,,1047021,59,survey-likert,
87,All,,0.0-4.0-56.0,,,,audio/NGN/NGN_07_NG.mp3,1048832,60,audio-keyboard-response,
87,All,,0.0-4.0-57.0,"[0, 1, 2, 3, 4, 5]","{'local': 3, 'casual': 2, 'educated': 4, 'friendly': 3, 'dependable': 3, 'traditional': 4}",20805,,1069641,61,survey-likert,
87,All,,0.0-4.0-58.0,,,,audio/NGG/NGG_08_G.mp3,1071012,62,audio-keyboard-response,
87,All,,0.0-4.0-59.0,"[0, 1, 2, 3, 4, 5]","{'local': 3, 'casual': 3, 'educated': 3, 'friendly': 4, 'dependable': 3, 'traditional': 5}",20925,,1091940,63,survey-likert,
87,All,[],0.0-5.0,,"{'age': '44', 'P0_Q0': None, 'gender': '女', 'origin': '广州', 'education': '不想回答'}",29765,,1121765,64,survey,
87,All,,0.0-6.0,,"{'lang1': '粤语', 'lang2': '普通话', 'lang3': '英语', 'lang4': '', 'lang5': ''}",42475,,1164241,65,survey-html-form,
87,All,,0.0-7.0,"[0, 2, 1]","{'family': 5, 'friends': 3, 'study/work': 1}",35596,,1199839,66,survey-likert,
87,All,,0.0-8.0,"[1, 2, 3, 0]","{'likert_young': 3, 'likert_proper': 4, 'likert_culture': 4, 'likert_identity': 4}",17152,,1216994,67,survey-likert,
87,All,[],0.0-9.0,,"{'attitude': '', 'have_heard': '否'}",11908,,1228915,68,survey,
87,All,,0.0-10.0,,0,2392,"
            <p>感谢您完成本次实验！</p>
            <p>请按""提交""按钮正式完成本实验。提交后请您稍等片刻，在您回到Prolific网站后就可以关闭窗口。</p>
      ",1231308,69,html-button-response,
61,All,,0.0-0.0,,0,14018,"<p style=""width: 1000px; margin-bottom: -250px"">
    您被邀请参加一项斯坦福大学的研究。
    <BR><BR>在此实验中，您会完成一项跟语言有关的任务，例如读或听一些字、描述图片或场景、造句、或完成简单的语言游戏。
    <BR><BR>本研究中没有已知的风险、成本或不适。
    <BR><BR>
    如果您同意参与这项研究，请继续。
    <BR><BR>
    <BR><BR>
    </p>
    <p style=""width: 1000px; font-size: 9pt; position: relative; top: 330px; padding-bottom: 30px; text-align: justify"">
    如果您已读完此表格并决定参与此项目，请明白您的参与是自愿的，您有权随时撤回您的同意或停止参与，而不会受到惩罚或失去您原本可以享有的利益有权。 您有权拒绝回答任何问题。 您的个人隐私将在研究产生的所有已发布和书面数据中得到保护。
    <BR><BR>联系信息：问题、疑虑或投诉：如果您对本研究、其程序、风险和益处有任何问题、疑虑或投诉，请用邮箱联系Ting Lin(linting@stanford.edu)或者Judith Degen教授(jdegen@stanford.edu)。如果您对这项研究的进行方式不满意，或者如果您对研究或您作为参与者的权利有任何疑虑、投诉或一般问题，请联系斯坦福机构审查委员会 (IRB) 发言与独立于研究团队的人联系 +1(650)-723-2480 或拨打免费电话 1-866-680-2906。 您也可以致函 Stanford IRB, Stanford University, Stanford, CA 94305-5401 或发送电子邮件至 irbnonmed@stanford.edu。
    </p>",14046,0,html-button-response,
61,All,,0.0-1.0,,0,13925,"
            <p>本研究的调查对象为母语为粤语的人。您可以将此链接分享给其他符合条件的人，但请不要多次参与本研究，您只会获得一次酬劳。</p>
            <p>本实验使用简体中文，将用时大约15分钟，完成后您将按公布的标准获得酬劳。</p>
            <p>请点击 ""继续""。</p>",27974,1,html-button-response,
61,All,,0.0-2.0,,0,7172,"
            <p>请确保您在安静的房间中用电脑完成本实验。</p>
            <p>在本实验中，您将聆听简短的音频片段，每段音频都是一名志愿者朗读的一个语段。</p>
            <p>听完每段音频后，您需要回答一些判断题。</p>",35149,2,html-button-response,
61,All,,0.0-3.0,,0,15645,"<p>实验开始前，请调整音量，确保您可以非常清楚地听到以下音频。</p>
    <p><audio controls><source src=""./audio/soundcheck.mp3"" type=""audio/mp3""></audio></p>
    <br><p>此外，以下音频将于实验过程中会出现数次，请遵守音频中的指示，<br>那一轮的每一道判断题<b>都请选择音频中的数字</b>。</p>
    <p><audio controls><source src=""./audio/attention_check_1.mp3"" type=""audio/mp3""></audio></p",50802,3,html-button-response,
61,All,,0.0-4.0-0.0,,,,audio/NGN/NGN_10_NG.mp3,51938,4,audio-keyboard-response,
61,All,,0.0-4.0-1.0,"[0, 1, 2, 3, 4, 5]","{'local': 5, 'casual': 2, 'educated': 5, 'friendly': 4, 'dependable': 4, 'traditional': 2}",42668,,94613,5,survey-likert,
61,All,,0.0-4.0-2.0,,,,audio/attention_check_1.mp3,97731,6,audio-keyboard-response,
61,All,,0.0-4.0-3.0,"[0, 1, 2, 3, 4, 5]","{'local': 0, 'casual': 0, 'educated': 0, 'friendly': 0, 'dependable': 0, 'traditional': 0}",17384,,115121,7,survey-likert,
61,All,,0.0-4.0-4.0,,,,audio/NL/NL_03_L.mp3,116189,8,audio-keyboard-response,
61,All,,0.0-4.0-5.0,"[0, 1, 2, 3, 4, 5]","{'local': 5, 'casual': 5, 'educated': 5, 'friendly': 5, 'dependable': 4, 'traditional': 0}",14400,,130593,9,survey-likert,
61,All,,0.0-4.0-6.0,,,,audio/NL/NL_06_L.mp3,131640,10,audio-keyboard-response,
61,All,,0.0-4.0-7.0,"[0, 1, 2, 3, 4, 5]","{'local': 3, 'casual': 0, 'educated': 5, 'friendly': 1, 'dependable': 1, 'traditional': 3}",32179,,163824,11,survey-likert,
61,All,,0.0-4.0-8.0,,,,audio/NGG/NGG_03_NG.mp3,165339,12,audio-keyboard-response,
61,All,,0.0-4.0-9.0,"[0, 1, 2, 3, 4, 5]","{'local': 5, 'casual': 1, 'educated': 5, 'friendly': 5, 'dependable': 3, 'traditional': 0}",24178,,189522,13,survey-likert,
61,All,,0.0-4.0-10.0,,,,audio/NL/NL_08_L.mp3,191069,14,audio-keyboard-response,
61,All,,0.0-4.0-11.0,"[0, 1, 2, 3, 4, 5]","{'local': 5, 'casual': 2, 'educated': 5, 'friendly': 4, 'dependable': 4, 'traditional': 1}",27783,,218856,15,survey-likert,
61,All,,0.0-4.0-12.0,,,,audio/NGN/NGN_07_N.mp3,220619,16,audio-keyboard-response,
61,All,,0.0-4.0-13.0,"[0, 1, 2, 3, 4, 5]","{'local': 0, 'casual': 1, 'educated': 5, 'friendly': 4, 'dependable': 4, 'traditional': 2}",27689,,248315,17,survey-likert,
61,All,,0.0-4.0-14.0,,,,audio/NGN/NGN_04_NG.mp3,250059,18,audio-keyboard-response,
61,All,,0.0-4.0-15.0,"[0, 1, 2, 3, 4, 5]","{'local': 5, 'casual': 4, 'educated': 5, 'friendly': 4, 'dependable': 4, 'traditional': 1}",25880,,275945,19,survey-likert,
61,All,,0.0-4.0-16.0,,,,audio/NL/NL_02_N.mp3,277020,20,audio-keyboard-response,
61,All,,0.0-4.0-17.0,"[0, 1, 2, 3, 4, 5]","{'local': 4, 'casual': 3, 'educated': 5, 'friendly': 5, 'dependable': 3, 'traditional': 0}",22668,,299694,21,survey-likert,
61,All,,0.0-4.0-18.0,,,,audio/NGG/NGG_02_G.mp3,300829,22,audio-keyboard-response,
61,All,,0.0-4.0-19.0,"[0, 1, 2, 3, 4, 5]","{'local': 4, 'casual': 4, 'educated': 5, 'friendly': 5, 'dependable': 5, 'traditional': 1}",30469,,331304,23,survey-likert,
61,All,,0.0-4.0-20.0,,,,audio/NGN/NGN_05_NG.mp3,333190,24,audio-keyboard-response,
61,All,,0.0-4.0-21.0,"[0, 1, 2, 3, 4, 5]","{'local': 3, 'casual': 1, 'educated': 5, 'friendly': 4, 'dependable': 4, 'traditional': 1}",30867,,364063,25,survey-likert,
61,All,,0.0-4.0-22.0,,,,audio/NL/NL_10_N.mp3,365634,26,audio-keyboard-response,
61,All,,0.0-4.0-23.0,"[0, 1, 2, 3, 4, 5]","{'local': 5, 'casual': 0, 'educated': 5, 'friendly': 4, 'dependable': 5, 'traditional': 5}",20436,,386076,27,survey-likert,
61,All,,0.0-4.0-24.0,,,,audio/NGN/NGN_08_NG.mp3,387774,28,audio-keyboard-response,
61,All,,0.0-4.0-25.0,"[0, 1, 2, 3, 4, 5]","{'local': 3, 'casual': 0, 'educated': 5, 'friendly': 3, 'dependable': 3, 'traditional': 5}",17607,,405386,29,survey-likert,
61,All,,0.0-4.0-26.0,,,,audio/NL/NL_09_N.mp3,406634,30,audio-keyboard-response,
61,All,,0.0-4.0-27.0,"[0, 1, 2, 3, 4, 5]","{'local': 3, 'casual': 0, 'educated': 5, 'friendly': 5, 'dependable': 5, 'traditional': 5}",20158,,426797,31,survey-likert,
61,All,,0.0-4.0-28.0,,,,audio/attention_check_6.mp3,429733,32,audio-keyboard-response,
61,All,,0.0-4.0-29.0,"[0, 1, 2, 3, 4, 5]","{'local': 5, 'casual': 5, 'educated': 5, 'friendly': 5, 'dependable': 5, 'traditional': 5}",12763,,442499,33,survey-likert,
61,All,,0.0-4.0-30.0,,,,audio/NGG/NGG_06_NG.mp3,443863,34,audio-keyboard-response,
61,All,,0.0-4.0-31.0,"[0, 1, 2, 3, 4, 5]","{'local': 5, 'casual': 1, 'educated': 5, 'friendly': 5, 'dependable': 5, 'traditional': 2}",15890,,459760,35,survey-likert,
61,All,,0.0-4.0-32.0,,,,audio/NGG/NGG_09_NG.mp3,462473,36,audio-keyboard-response,
61,All,,0.0-4.0-33.0,"[0, 1, 2, 3, 4, 5]","{'local': 5, 'casual': 0, 'educated': 5, 'friendly': 3, 'dependable': 5, 'traditional': 5}",14607,,477086,37,survey-likert,
61,All,,0.0-4.0-34.0,,,,audio/NGG/NGG_05_G.mp3,478284,38,audio-keyboard-response,
61,All,,0.0-4.0-35.0,"[0, 1, 2, 3, 4, 5]","{'local': 5, 'casual': 5, 'educated': 5, 'friendly': 5, 'dependable': 5, 'traditional': 0}",11088,,489378,39,survey-likert,
61,All,,0.0-4.0-36.0,,,,audio/NGG/NGG_08_NG.mp3,490813,40,audio-keyboard-response,
61,All,,0.0-4.0-37.0,"[0, 1, 2, 3, 4, 5]","{'local': 5, 'casual': 2, 'educated': 5, 'friendly': 5, 'dependable': 5, 'traditional': 2}",16781,,507601,41,survey-likert,
61,All,,0.0-4.0-38.0,,,,audio/NL/NL_07_L.mp3,508783,42,audio-keyboard-response,
61,All,,0.0-4.0-39.0,"[0, 1, 2, 3, 4, 5]","{'local': 5, 'casual': 3, 'educated': 4, 'friendly': 4, 'dependable': 3, 'traditional': 0}",25084,,533874,43,survey-likert,
61,All,,0.0-4.0-40.0,,,,audio/NL/NL_04_L.mp3,535023,44,audio-keyboard-response,
61,All,,0.0-4.0-41.0,"[0, 1, 2, 3, 4, 5]","{'local': 3, 'casual': 2, 'educated': 5, 'friendly': 5, 'dependable': 5, 'traditional': 3}",16110,,551139,45,survey-likert,
61,All,,0.0-4.0-42.0,,,,audio/NGG/NGG_10_G.mp3,552943,46,audio-keyboard-response,
61,All,,0.0-4.0-43.0,"[0, 1, 2, 3, 4, 5]","{'local': 5, 'casual': 5, 'educated': 5, 'friendly': 5, 'dependable': 5, 'traditional': 0}",12996,,565945,47,survey-likert,
61,All,,0.0-4.0-44.0,,,,audio/NGG/NGG_04_NG.mp3,567343,48,audio-keyboard-response,
61,All,,0.0-4.0-45.0,"[0, 1, 2, 3, 4, 5]","{'local': 2, 'casual': 0, 'educated': 5, 'friendly': 0, 'dependable': 0, 'traditional': 0}",19722,,587071,49,survey-likert,
61,All,,0.0-4.0-46.0,,,,audio/NL/NL_01_N.mp3,588903,50,audio-keyboard-response,
61,All,,0.0-4.0-47.0,"[0, 1, 2, 3, 4, 5]","{'local': 5, 'casual': 5, 'educated': 5, 'friendly': 5, 'dependable': 5, 'traditional': 0}",16107,,605017,51,survey-likert,
61,All,,0.0-4.0-48.0,,,,audio/NGN/NGN_01_NG.mp3,607123,52,audio-keyboard-response,
61,All,,0.0-4.0-49.0,"[0, 1, 2, 3, 4, 5]","{'local': 4, 'casual': 0, 'educated': 5, 'friendly': 2, 'dependable': 5, 'traditional': 5}",18608,,625738,53,survey-likert,
61,All,,0.0-4.0-50.0,,,,audio/NGG/NGG_01_G.mp3,627073,54,audio-keyboard-response,
61,All,,0.0-4.0-51.0,"[0, 1, 2, 3, 4, 5]","{'local': 5, 'casual': 5, 'educated': 5, 'friendly': 5, 'dependable': 5, 'traditional': 2}",15664,,642742,55,survey-likert,
61,All,,0.0-4.0-52.0,,,,audio/NGN/NGN_02_N.mp3,643815,56,audio-keyboard-response,
61,All,,0.0-4.0-53.0,"[0, 1, 2, 3, 4, 5]","{'local': 5, 'casual': 5, 'educated': 5, 'friendly': 5, 'dependable': 5, 'traditional': 0}",11664,,655484,57,survey-likert,
61,All,,0.0-4.0-54.0,,,,audio/attention_check_4.mp3,658693,58,audio-keyboard-response,
61,All,,0.0-4.0-55.0,"[0, 1, 2, 3, 4, 5]","{'local': 3, 'casual': 3, 'educated': 3, 'friendly': 3, 'dependable': 3, 'traditional': 3}",12393,,671092,59,survey-likert,
61,All,,0.0-4.0-56.0,,,,audio/NGN/NGN_09_N.mp3,672622,60,audio-keyboard-response,
61,All,,0.0-4.0-57.0,"[0, 1, 2, 3, 4, 5]","{'local': 5, 'casual': 0, 'educated': 5, 'friendly': 3, 'dependable': 5, 'traditional': 3}",12600,,685225,61,survey-likert,
61,All,,0.0-4.0-58.0,,,,audio/NGN/NGN_03_NG.mp3,686583,62,audio-keyboard-response,
61,All,,0.0-4.0-59.0,"[0, 1, 2, 3, 4, 5]","{'local': 5, 'casual': 3, 'educated': 5, 'friendly': 4, 'dependable': 5, 'traditional': 0}",16083,,702672,63,survey-likert,
61,All,[],0.0-5.0,,"{'age': '25', 'P0_Q0': None, 'gender': '女', 'origin': '香港', 'education': '本科'}",36077,,738810,64,survey,
61,All,,0.0-6.0,,"{'lang1': '广东话', 'lang2': '普通话', 'lang3': '英语', 'lang4': '', 'lang5': ''}",67698,,806510,65,survey-html-form,
61,All,,0.0-7.0,"[0, 1, 2]","{'family': 5, 'friends': 5, 'study/work': 1}",17380,,823895,66,survey-likert,
61,All,,0.0-8.0,"[2, 1, 3, 0]","{'likert_young': 5, 'likert_proper': 0, 'likert_culture': 5, 'likert_identity': 5}",10216,,834114,67,survey-likert,
61,All,[],0.0-9.0,,"{'attitude': '某啲懶音字係香港人casual 場合嘅特色。係現代香港式廣東話嘅特色。係令人講得流利嘅重要特徵。有d似英文有d字會reduce。有時專登講返正音有時好似好唔自己咁。可能亦都係歷史遺留落嚟嘅嘢。因為我哋又要學英文，又要學普通話，根本廣東話只喺屋企學，學校唔會教我哋廣東話正確發音。亦都代表咗我哋文化深受英國人影響，有時啲懶音係受英文影響。亦都反映咗中國，香港，澳門等地漸漸受到共產黨，新中國影響，普通話越嚟越prevelant，所以有啲懶音都受到普通話影響。好多謝你對廣東話嘅重視！同埋多謝你傳承廣東話！祝你研究順利！有啲比較abstract嘅題目有d難，例如教育程度，幾友善呢啲好難答。有d audio 唔係幾明佢想講咩', 'have_heard': '是'}",906556,,1740692,68,survey,
61,All,,0.0-10.0,,0,2122,"
            <p>感谢您完成本次实验！</p>
            <p>请按""提交""按钮正式完成本实验。提交后请您稍等片刻，在您回到Prolific网站后就可以关闭窗口。</p>
      ",1742816,69,html-button-response,
74,All,,0.0-0.0,,0,3308,"<p style=""width: 1000px; margin-bottom: -250px"">
    您被邀请参加一项斯坦福大学的研究。
    <BR><BR>在此实验中，您会完成一项跟语言有关的任务，例如读或听一些字、描述图片或场景、造句、或完成简单的语言游戏。
    <BR><BR>本研究中没有已知的风险、成本或不适。
    <BR><BR>
    如果您同意参与这项研究，请继续。
    <BR><BR>
    <BR><BR>
    </p>
    <p style=""width: 1000px; font-size: 9pt; position: relative; top: 330px; padding-bottom: 30px; text-align: justify"">
    如果您已读完此表格并决定参与此项目，请明白您的参与是自愿的，您有权随时撤回您的同意或停止参与，而不会受到惩罚或失去您原本可以享有的利益有权。 您有权拒绝回答任何问题。 您的个人隐私将在研究产生的所有已发布和书面数据中得到保护。
    <BR><BR>联系信息：问题、疑虑或投诉：如果您对本研究、其程序、风险和益处有任何问题、疑虑或投诉，请用邮箱联系Ting Lin(linting@stanford.edu)或者Judith Degen教授(jdegen@stanford.edu)。如果您对这项研究的进行方式不满意，或者如果您对研究或您作为参与者的权利有任何疑虑、投诉或一般问题，请联系斯坦福机构审查委员会 (IRB) 发言与独立于研究团队的人联系 +1(650)-723-2480 或拨打免费电话 1-866-680-2906。 您也可以致函 Stanford IRB, Stanford University, Stanford, CA 94305-5401 或发送电子邮件至 irbnonmed@stanford.edu。
    </p>",3346,0,html-button-response,
74,All,,0.0-1.0,,0,7742,"
            <p>本研究的调查对象为母语为粤语的人。您可以将此链接分享给其他符合条件的人，但请不要多次参与本研究，您只会获得一次酬劳。</p>
            <p>本实验使用简体中文，将用时大约15分钟，完成后您将按公布的标准获得酬劳。</p>
            <p>请点击 ""继续""。</p>",11091,1,html-button-response,
74,All,,0.0-2.0,,0,1993,"
            <p>请确保您在安静的房间中用电脑完成本实验。</p>
            <p>在本实验中，您将聆听简短的音频片段，每段音频都是一名志愿者朗读的一个语段。</p>
            <p>听完每段音频后，您需要回答一些判断题。</p>",13086,2,html-button-response,
74,All,,0.0-3.0,,0,11360,"<p>实验开始前，请调整音量，确保您可以非常清楚地听到以下音频。</p>
    <p><audio controls><source src=""./audio/soundcheck.mp3"" type=""audio/mp3""></audio></p>
    <br><p>此外，以下音频将于实验过程中会出现数次，请遵守音频中的指示，<br>那一轮的每一道判断题<b>都请选择音频中的数字</b>。</p>
    <p><audio controls><source src=""./audio/attention_check_1.mp3"" type=""audio/mp3""></audio></p",24454,3,html-button-response,
74,All,,0.0-4.0-0.0,,,,audio/NGG/NGG_03_NG.mp3,26019,4,audio-keyboard-response,
74,All,,0.0-4.0-1.0,"[0, 1, 2, 3, 4, 5]","{'local': 4, 'casual': 4, 'educated': 3, 'friendly': 3, 'dependable': 3, 'traditional': 3}",15091,,41115,5,survey-likert,
74,All,,0.0-4.0-2.0,,,,audio/NGN/NGN_03_NG.mp3,42531,6,audio-keyboard-response,
74,All,,0.0-4.0-3.0,"[0, 1, 2, 3, 4, 5]","{'local': 3, 'casual': 3, 'educated': 3, 'friendly': 4, 'dependable': 3, 'traditional': 3}",9340,,51874,7,survey-likert,
74,All,,0.0-4.0-4.0,,,,audio/NL/NL_03_N.mp3,52857,8,audio-keyboard-response,
74,All,,0.0-4.0-5.0,"[0, 1, 2, 3, 4, 5]","{'local': 3, 'casual': 3, 'educated': 3, 'friendly': 3, 'dependable': 3, 'traditional': 4}",9814,,62675,9,survey-likert,
74,All,,0.0-4.0-6.0,,,,audio/NGN/NGN_05_NG.mp3,64591,10,audio-keyboard-response,
74,All,,0.0-4.0-7.0,"[0, 1, 2, 3, 4, 5]","{'local': 2, 'casual': 4, 'educated': 3, 'friendly': 3, 'dependable': 3, 'traditional': 3}",9286,,73880,11,survey-likert,
74,All,,0.0-4.0-8.0,,,,audio/NGN/NGN_04_NG.mp3,75700,12,audio-keyboard-response,
74,All,,0.0-4.0-9.0,"[0, 1, 2, 3, 4, 5]","{'local': 2, 'casual': 3, 'educated': 3, 'friendly': 3, 'dependable': 2, 'traditional': 3}",9232,,84936,13,survey-likert,
74,All,,0.0-4.0-10.0,,,,audio/NL/NL_01_L.mp3,86538,14,audio-keyboard-response,
74,All,,0.0-4.0-11.0,"[0, 1, 2, 3, 4, 5]","{'local': 3, 'casual': 5, 'educated': 3, 'friendly': 3, 'dependable': 3, 'traditional': 3}",18734,,105276,15,survey-likert,
74,All,,0.0-4.0-12.0,,,,audio/NL/NL_08_N.mp3,107071,16,audio-keyboard-response,
74,All,,0.0-4.0-13.0,"[0, 1, 2, 3, 4, 5]","{'local': 4, 'casual': 3, 'educated': 3, 'friendly': 3, 'dependable': 3, 'traditional': 4}",9641,,116716,17,survey-likert,
74,All,,0.0-4.0-14.0,,,,audio/NL/NL_09_L.mp3,118368,18,audio-keyboard-response,
74,All,,0.0-4.0-15.0,"[0, 1, 2, 3, 4, 5]","{'local': 3, 'casual': 2, 'educated': 3, 'friendly': 3, 'dependable': 2, 'traditional': 3}",8065,,126435,19,survey-likert,
74,All,,0.0-4.0-16.0,,,,audio/NGG/NGG_08_G.mp3,127797,20,audio-keyboard-response,
74,All,,0.0-4.0-17.0,"[0, 1, 2, 3, 4, 5]","{'local': 3, 'casual': 4, 'educated': 3, 'friendly': 4, 'dependable': 3, 'traditional': 2}",9760,,137561,21,survey-likert,
74,All,,0.0-4.0-18.0,,,,audio/NGN/NGN_09_N.mp3,139243,22,audio-keyboard-response,
74,All,,0.0-4.0-19.0,"[0, 1, 2, 3, 4, 5]","{'local': 3, 'casual': 3, 'educated': 4, 'friendly': 3, 'dependable': 3, 'traditional': 4}",8425,,147671,23,survey-likert,
74,All,,0.0-4.0-20.0,,,,audio/NGN/NGN_10_NG.mp3,148843,24,audio-keyboard-response,
74,All,,0.0-4.0-21.0,"[0, 1, 2, 3, 4, 5]","{'local': 3, 'casual': 3, 'educated': 4, 'friendly': 3, 'dependable': 3, 'traditional': 4}",9653,,158499,25,survey-likert,
74,All,,0.0-4.0-22.0,,,,audio/NL/NL_07_L.mp3,159734,26,audio-keyboard-response,
74,All,,0.0-4.0-23.0,"[0, 1, 2, 3, 4, 5]","{'local': 4, 'casual': 4, 'educated': 3, 'friendly': 3, 'dependable': 3, 'traditional': 3}",15169,,174906,27,survey-likert,
74,All,,0.0-4.0-24.0,,,,audio/NGN/NGN_07_N.mp3,176743,28,audio-keyboard-response,
74,All,,0.0-4.0-25.0,"[0, 1, 2, 3, 4, 5]","{'local': 2, 'casual': 4, 'educated': 3, 'friendly': 4, 'dependable': 3, 'traditional': 3}",10156,,186902,29,survey-likert,
74,All,,0.0-4.0-26.0,,,,audio/NGN/NGN_02_N.mp3,188028,30,audio-keyboard-response,
74,All,,0.0-4.0-27.0,"[0, 1, 2, 3, 4, 5]","{'local': 3, 'casual': 4, 'educated': 3, 'friendly': 4, 'dependable': 3, 'traditional': 3}",8141,,196172,31,survey-likert,
74,All,,0.0-4.0-28.0,,,,audio/attention_check_6.mp3,199154,32,audio-keyboard-response,
74,All,,0.0-4.0-29.0,"[0, 1, 2, 3, 4, 5]","{'local': 5, 'casual': 5, 'educated': 5, 'friendly': 5, 'dependable': 5, 'traditional': 5}",8742,,207899,33,survey-likert,
74,All,,0.0-4.0-30.0,,,,audio/NGG/NGG_04_NG.mp3,209341,34,audio-keyboard-response,
74,All,,0.0-4.0-31.0,"[0, 1, 2, 3, 4, 5]","{'local': 2, 'casual': 4, 'educated': 2, 'friendly': 4, 'dependable': 3, 'traditional': 2}",8952,,218296,35,survey-likert,
74,All,,0.0-4.0-32.0,,,,audio/attention_check_4.mp3,221533,36,audio-keyboard-response,
74,All,,0.0-4.0-33.0,"[0, 1, 2, 3, 4, 5]","{'local': 3, 'casual': 3, 'educated': 3, 'friendly': 3, 'dependable': 3, 'traditional': 3}",6798,,228334,37,survey-likert,
74,All,,0.0-4.0-34.0,,,,audio/NGG/NGG_05_NG.mp3,229997,38,audio-keyboard-response,
74,All,,0.0-4.0-35.0,"[0, 1, 2, 3, 4, 5]","{'local': 4, 'casual': 2, 'educated': 3, 'friendly': 3, 'dependable': 3, 'traditional': 3}",9580,,239581,39,survey-likert,
74,All,,0.0-4.0-36.0,,,,audio/NL/NL_10_L.mp3,240968,40,audio-keyboard-response,
74,All,,0.0-4.0-37.0,"[0, 1, 2, 3, 4, 5]","{'local': 4, 'casual': 4, 'educated': 3, 'friendly': 3, 'dependable': 3, 'traditional': 2}",10415,,251386,41,survey-likert,
74,All,,0.0-4.0-38.0,,,,audio/attention_check_1.mp3,254329,42,audio-keyboard-response,
74,All,,0.0-4.0-39.0,"[0, 1, 2, 3, 4, 5]","{'local': 0, 'casual': 0, 'educated': 0, 'friendly': 0, 'dependable': 0, 'traditional': 0}",9105,,263437,43,survey-likert,
74,All,,0.0-4.0-40.0,,,,audio/NGN/NGN_08_NG.mp3,265246,44,audio-keyboard-response,
74,All,,0.0-4.0-41.0,"[0, 1, 2, 3, 4, 5]","{'local': 3, 'casual': 3, 'educated': 3, 'friendly': 3, 'dependable': 3, 'traditional': 4}",10312,,275561,45,survey-likert,
74,All,,0.0-4.0-42.0,,,,audio/NL/NL_06_N.mp3,276596,46,audio-keyboard-response,
74,All,,0.0-4.0-43.0,"[0, 1, 2, 3, 4, 5]","{'local': 4, 'casual': 3, 'educated': 3, 'friendly': 4, 'dependable': 3, 'traditional': 4}",11810,,288409,47,survey-likert,
74,All,,0.0-4.0-44.0,,,,audio/NGG/NGG_06_G.mp3,289861,48,audio-keyboard-response,
74,All,,0.0-4.0-45.0,"[0, 1, 2, 3, 4, 5]","{'local': 3, 'casual': 3, 'educated': 3, 'friendly': 3, 'dependable': 3, 'traditional': 4}",9436,,299509,49,survey-likert,
74,All,,0.0-4.0-46.0,,,,audio/NGG/NGG_10_NG.mp3,301818,50,audio-keyboard-response,
74,All,,0.0-4.0-47.0,"[0, 1, 2, 3, 4, 5]","{'local': 4, 'casual': 4, 'educated': 3, 'friendly': 4, 'dependable': 3, 'traditional': 2}",9912,,311734,51,survey-likert,
74,All,,0.0-4.0-48.0,,,,audio/NL/NL_02_N.mp3,312891,52,audio-keyboard-response,
74,All,,0.0-4.0-49.0,"[0, 1, 2, 3, 4, 5]","{'local': 3, 'casual': 4, 'educated': 3, 'friendly': 4, 'dependable': 3, 'traditional': 3}",7666,,320560,53,survey-likert,
74,All,,0.0-4.0-50.0,,,,audio/NGG/NGG_02_NG.mp3,321894,54,audio-keyboard-response,
74,All,,0.0-4.0-51.0,"[0, 1, 2, 3, 4, 5]","{'local': 3, 'casual': 4, 'educated': 3, 'friendly': 3, 'dependable': 3, 'traditional': 3}",8888,,330786,55,survey-likert,
74,All,,0.0-4.0-52.0,,,,audio/NGN/NGN_01_N.mp3,332694,56,audio-keyboard-response,
74,All,,0.0-4.0-53.0,"[0, 1, 2, 3, 4, 5]","{'local': 3, 'casual': 2, 'educated': 3, 'friendly': 3, 'dependable': 3, 'traditional': 4}",9419,,342116,57,survey-likert,
74,All,,0.0-4.0-54.0,,,,audio/NGG/NGG_01_NG.mp3,343542,58,audio-keyboard-response,
74,All,,0.0-4.0-55.0,"[0, 1, 2, 3, 4, 5]","{'local': 4, 'casual': 4, 'educated': 3, 'friendly': 3, 'dependable': 2, 'traditional': 2}",9230,,352775,59,survey-likert,
74,All,,0.0-4.0-56.0,,,,audio/NL/NL_04_N.mp3,354049,60,audio-keyboard-response,
74,All,,0.0-4.0-57.0,"[0, 1, 2, 3, 4, 5]","{'local': 4, 'casual': 4, 'educated': 3, 'friendly': 4, 'dependable': 2, 'traditional': 2}",9863,,363916,61,survey-likert,
74,All,,0.0-4.0-58.0,,,,audio/NGG/NGG_09_NG.mp3,366785,62,audio-keyboard-response,
74,All,,0.0-4.0-59.0,"[0, 1, 2, 3, 4, 5]","{'local': 4, 'casual': 2, 'educated': 3, 'friendly': 2, 'dependable': 2, 'traditional': 3}",9165,,375953,63,survey-likert,
74,All,[],0.0-5.0,,"{'age': '32', 'P0_Q0': None, 'gender': '女', 'origin': '澳门', 'education': '硕士'}",23769,,399812,64,survey,
74,All,,0.0-6.0,,"{'lang1': '粤语', 'lang2': '普通话', 'lang3': '英语', 'lang4': '日语', 'lang5': ''}",15619,,415435,65,survey-html-form,
74,All,,0.0-7.0,"[0, 1, 2]","{'family': 4, 'friends': 1, 'study/work': 0}",27143,,442582,66,survey-likert,
74,All,,0.0-8.0,"[3, 2, 0, 1]","{'likert_young': 4, 'likert_proper': 4, 'likert_culture': 4, 'likert_identity': 4}",12556,,455144,67,survey-likert,
74,All,[],0.0-9.0,,"{'attitude': '听起来不舒服，失去了粤语的韵味', 'have_heard': '是'}",31244,,486408,68,survey,
74,All,,0.0-10.0,,0,1664,"
            <p>感谢您完成本次实验！</p>
            <p>请按""提交""按钮正式完成本实验。提交后请您稍等片刻，在您回到Prolific网站后就可以关闭窗口。</p>
      ",488073,69,html-button-response,
86,All,,0.0-0.0,,0,8958,"<p style=""width: 1000px; margin-bottom: -250px"">
    您被邀请参加一项斯坦福大学的研究。
    <BR><BR>在此实验中，您会完成一项跟语言有关的任务，例如读或听一些字、描述图片或场景、造句、或完成简单的语言游戏。
    <BR><BR>本研究中没有已知的风险、成本或不适。
    <BR><BR>
    如果您同意参与这项研究，请继续。
    <BR><BR>
    <BR><BR>
    </p>
    <p style=""width: 1000px; font-size: 9pt; position: relative; top: 330px; padding-bottom: 30px; text-align: justify"">
    如果您已读完此表格并决定参与此项目，请明白您的参与是自愿的，您有权随时撤回您的同意或停止参与，而不会受到惩罚或失去您原本可以享有的利益有权。 您有权拒绝回答任何问题。 您的个人隐私将在研究产生的所有已发布和书面数据中得到保护。
    <BR><BR>联系信息：问题、疑虑或投诉：如果您对本研究、其程序、风险和益处有任何问题、疑虑或投诉，请用邮箱联系Ting Lin(linting@stanford.edu)或者Judith Degen教授(jdegen@stanford.edu)。如果您对这项研究的进行方式不满意，或者如果您对研究或您作为参与者的权利有任何疑虑、投诉或一般问题，请联系斯坦福机构审查委员会 (IRB) 发言与独立于研究团队的人联系 +1(650)-723-2480 或拨打免费电话 1-866-680-2906。 您也可以致函 Stanford IRB, Stanford University, Stanford, CA 94305-5401 或发送电子邮件至 irbnonmed@stanford.edu。
    </p>",8996,0,html-button-response,
86,All,,0.0-1.0,,0,7929,"
            <p>本研究的调查对象为母语为粤语的人。您可以将此链接分享给其他符合条件的人，但请不要多次参与本研究，您只会获得一次酬劳。</p>
            <p>本实验使用简体中文，将用时大约15分钟，完成后您将按公布的标准获得酬劳。</p>
            <p>请点击 ""继续""。</p>",16925,1,html-button-response,
86,All,,0.0-2.0,,0,9320,"
            <p>请确保您在安静的房间中用电脑完成本实验。</p>
            <p>在本实验中，您将聆听简短的音频片段，每段音频都是一名志愿者朗读的一个语段。</p>
            <p>听完每段音频后，您需要回答一些判断题。</p>",26247,2,html-button-response,
86,All,,0.0-3.0,,0,54852,"<p>实验开始前，请调整音量，确保您可以非常清楚地听到以下音频。</p>
    <p><audio controls><source src=""./audio/soundcheck.mp3"" type=""audio/mp3""></audio></p>
    <br><p>此外，以下音频将于实验过程中会出现数次，请遵守音频中的指示，<br>那一轮的每一道判断题<b>都请选择音频中的数字</b>。</p>
    <p><audio controls><source src=""./audio/attention_check_1.mp3"" type=""audio/mp3""></audio></p",81101,3,html-button-response,
86,All,,0.0-4.0-0.0,,,,audio/NGG/NGG_09_NG.mp3,83875,4,audio-keyboard-response,
86,All,,0.0-4.0-1.0,"[0, 1, 2, 3, 4, 5]","{'local': 0, 'casual': 0, 'educated': 0, 'friendly': 0, 'dependable': 0, 'traditional': 0}",29388,,113266,5,survey-likert,
86,All,,0.0-4.0-2.0,,,,audio/NL/NL_07_L.mp3,114712,6,audio-keyboard-response,
86,All,,0.0-4.0-3.0,"[0, 1, 2, 3, 4, 5]","{'local': 3, 'casual': 3, 'educated': 3, 'friendly': 3, 'dependable': 3, 'traditional': 3}",42805,,157520,7,survey-likert,
86,All,,0.0-4.0-4.0,,,,audio/attention_check_1.mp3,160727,8,audio-keyboard-response,
86,All,,0.0-4.0-5.0,"[0, 1, 2, 3, 4, 5]","{'local': 0, 'casual': 0, 'educated': 0, 'friendly': 0, 'dependable': 0, 'traditional': 0}",6656,,167384,9,survey-likert,
86,All,,0.0-4.0-6.0,,,,audio/NL/NL_02_L.mp3,168278,10,audio-keyboard-response,
86,All,,0.0-4.0-7.0,"[0, 1, 2, 3, 4, 5]","{'local': 2, 'casual': 2, 'educated': 2, 'friendly': 2, 'dependable': 2, 'traditional': 2}",15485,,183764,11,survey-likert,
86,All,,0.0-4.0-8.0,,,,audio/NL/NL_08_L.mp3,185387,12,audio-keyboard-response,
86,All,,0.0-4.0-9.0,"[0, 1, 2, 3, 4, 5]","{'local': 3, 'casual': 3, 'educated': 3, 'friendly': 3, 'dependable': 3, 'traditional': 3}",17321,,202710,13,survey-likert,
86,All,,0.0-4.0-10.0,,,,audio/NGG/NGG_05_G.mp3,203968,14,audio-keyboard-response,
86,All,,0.0-4.0-11.0,"[0, 1, 2, 3, 4, 5]","{'local': 3, 'casual': 2, 'educated': 2, 'friendly': 2, 'dependable': 2, 'traditional': 2}",17838,,221808,15,survey-likert,
86,All,,0.0-4.0-12.0,,,,audio/NL/NL_04_L.mp3,222967,16,audio-keyboard-response,
86,All,,0.0-4.0-13.0,"[0, 1, 2, 3, 4, 5]","{'local': 2, 'casual': 2, 'educated': 3, 'friendly': 2, 'dependable': 2, 'traditional': 3}",11506,,234474,17,survey-likert,
86,All,,0.0-4.0-14.0,,,,audio/NGN/NGN_05_NG.mp3,236384,18,audio-keyboard-response,
86,All,,0.0-4.0-15.0,"[0, 1, 2, 3, 4, 5]","{'local': 2, 'casual': 2, 'educated': 3, 'friendly': 2, 'dependable': 3, 'traditional': 3}",11841,,248227,19,survey-likert,
86,All,,0.0-4.0-16.0,,,,audio/NGN/NGN_04_NG.mp3,250027,20,audio-keyboard-response,
86,All,,0.0-4.0-17.0,"[0, 1, 2, 3, 4, 5]","{'local': 2, 'casual': 2, 'educated': 2, 'friendly': 3, 'dependable': 2, 'traditional': 2}",17121,,267150,21,survey-likert,
86,All,,0.0-4.0-18.0,,,,audio/NGG/NGG_04_NG.mp3,268587,22,audio-keyboard-response,
86,All,,0.0-4.0-19.0,"[0, 1, 2, 3, 4, 5]","{'local': 2, 'casual': 3, 'educated': 1, 'friendly': 2, 'dependable': 2, 'traditional': 1}",27190,,295778,23,survey-likert,
86,All,,0.0-4.0-20.0,,,,audio/NGN/NGN_02_N.mp3,296928,24,audio-keyboard-response,
86,All,,0.0-4.0-21.0,"[0, 1, 2, 3, 4, 5]","{'local': 3, 'casual': 3, 'educated': 3, 'friendly': 3, 'dependable': 2, 'traditional': 2}",11913,,308843,25,survey-likert,
86,All,,0.0-4.0-22.0,,,,audio/NL/NL_10_N.mp3,310443,26,audio-keyboard-response,
86,All,,0.0-4.0-23.0,"[0, 1, 2, 3, 4, 5]","{'local': 3, 'casual': 2, 'educated': 2, 'friendly': 2, 'dependable': 3, 'traditional': 3}",10969,,321413,27,survey-likert,
86,All,,0.0-4.0-24.0,,,,audio/NGG/NGG_03_G.mp3,322763,28,audio-keyboard-response,
86,All,,0.0-4.0-25.0,"[0, 1, 2, 3, 4, 5]","{'local': 2, 'casual': 2, 'educated': 2, 'friendly': 2, 'dependable': 2, 'traditional': 1}",9984,,332750,29,survey-likert,
86,All,,0.0-4.0-26.0,,,,audio/NGN/NGN_03_NG.mp3,334155,30,audio-keyboard-response,
86,All,,0.0-4.0-27.0,"[0, 1, 2, 3, 4, 5]","{'local': 2, 'casual': 3, 'educated': 3, 'friendly': 2, 'dependable': 2, 'traditional': 3}",13285,,347442,31,survey-likert,
86,All,,0.0-4.0-28.0,,,,audio/NGN/NGN_09_NG.mp3,349099,32,audio-keyboard-response,
86,All,,0.0-4.0-29.0,"[0, 1, 2, 3, 4, 5]","{'local': 3, 'casual': 2, 'educated': 3, 'friendly': 3, 'dependable': 3, 'traditional': 4}",14573,,363674,33,survey-likert,
86,All,,0.0-4.0-30.0,,,,audio/NL/NL_06_N.mp3,364640,34,audio-keyboard-response,
86,All,,0.0-4.0-31.0,"[0, 1, 2, 3, 4, 5]","{'local': 3, 'casual': 3, 'educated': 3, 'friendly': 2, 'dependable': 3, 'traditional': 3}",13611,,378253,35,survey-likert,
86,All,,0.0-4.0-32.0,,,,audio/NL/NL_01_L.mp3,379851,36,audio-keyboard-response,
86,All,,0.0-4.0-33.0,"[0, 1, 2, 3, 4, 5]","{'local': 3, 'casual': 4, 'educated': 2, 'friendly': 4, 'dependable': 3, 'traditional': 2}",9953,,389806,37,survey-likert,
86,All,,0.0-4.0-34.0,,,,audio/NGG/NGG_02_NG.mp3,391392,38,audio-keyboard-response,
86,All,,0.0-4.0-35.0,"[0, 1, 2, 3, 4, 5]","{'local': 3, 'casual': 2, 'educated': 2, 'friendly': 2, 'dependable': 3, 'traditional': 2}",16487,,407881,39,survey-likert,
86,All,,0.0-4.0-36.0,,,,audio/NL/NL_09_L.mp3,409163,40,audio-keyboard-response,
86,All,,0.0-4.0-37.0,"[0, 1, 2, 3, 4, 5]","{'local': 3, 'casual': 3, 'educated': 3, 'friendly': 3, 'dependable': 3, 'traditional': 3}",9158,,418322,41,survey-likert,
86,All,,0.0-4.0-38.0,,,,audio/attention_check_6.mp3,421290,42,audio-keyboard-response,
86,All,,0.0-4.0-39.0,"[0, 1, 2, 3, 4, 5]","{'local': 5, 'casual': 5, 'educated': 5, 'friendly': 5, 'dependable': 5, 'traditional': 5}",6983,,428275,43,survey-likert,
86,All,,0.0-4.0-40.0,,,,audio/NL/NL_03_L.mp3,429407,44,audio-keyboard-response,
86,All,,0.0-4.0-41.0,"[0, 1, 2, 3, 4, 5]","{'local': 3, 'casual': 2, 'educated': 2, 'friendly': 3, 'dependable': 3, 'traditional': 2}",8211,,437620,45,survey-likert,
86,All,,0.0-4.0-42.0,,,,audio/NGG/NGG_10_G.mp3,439498,46,audio-keyboard-response,
86,All,,0.0-4.0-43.0,"[0, 1, 2, 3, 4, 5]","{'local': 2, 'casual': 3, 'educated': 3, 'friendly': 4, 'dependable': 3, 'traditional': 1}",13339,,452839,47,survey-likert,
86,All,,0.0-4.0-44.0,,,,audio/NGG/NGG_01_NG.mp3,454283,48,audio-keyboard-response,
86,All,,0.0-4.0-45.0,"[0, 1, 2, 3, 4, 5]","{'local': 3, 'casual': 3, 'educated': 2, 'friendly': 2, 'dependable': 3, 'traditional': 2}",15667,,469952,49,survey-likert,
86,All,,0.0-4.0-46.0,,,,audio/NGN/NGN_07_NG.mp3,471659,50,audio-keyboard-response,
86,All,,0.0-4.0-47.0,"[0, 1, 2, 3, 4, 5]","{'local': 3, 'casual': 3, 'educated': 4, 'friendly': 3, 'dependable': 3, 'traditional': 4}",10494,,482154,51,survey-likert,
86,All,,0.0-4.0-48.0,,,,audio/NGG/NGG_06_NG.mp3,483860,52,audio-keyboard-response,
86,All,,0.0-4.0-49.0,"[0, 1, 2, 3, 4, 5]","{'local': 3, 'casual': 3, 'educated': 2, 'friendly': 2, 'dependable': 3, 'traditional': 2}",9501,,493363,53,survey-likert,
86,All,,0.0-4.0-50.0,,,,audio/attention_check_4.mp3,496575,54,audio-keyboard-response,
86,All,,0.0-4.0-51.0,"[0, 1, 2, 3, 4, 5]","{'local': 3, 'casual': 3, 'educated': 3, 'friendly': 3, 'dependable': 3, 'traditional': 3}",9476,,506052,55,survey-likert,
86,All,,0.0-4.0-52.0,,,,audio/NGG/NGG_08_NG.mp3,507540,56,audio-keyboard-response,
86,All,,0.0-4.0-53.0,"[0, 1, 2, 3, 4, 5]","{'local': 3, 'casual': 3, 'educated': 2, 'friendly': 3, 'dependable': 3, 'traditional': 2}",10785,,518327,57,survey-likert,
86,All,,0.0-4.0-54.0,,,,audio/NGN/NGN_10_NG.mp3,519508,58,audio-keyboard-response,
86,All,,0.0-4.0-55.0,"[0, 1, 2, 3, 4, 5]","{'local': 3, 'casual': 3, 'educated': 3, 'friendly': 2, 'dependable': 3, 'traditional': 4}",11370,,530879,59,survey-likert,
86,All,,0.0-4.0-56.0,,,,audio/NGN/NGN_01_N.mp3,532788,60,audio-keyboard-response,
86,All,,0.0-4.0-57.0,"[0, 1, 2, 3, 4, 5]","{'local': 3, 'casual': 3, 'educated': 3, 'friendly': 3, 'dependable': 3, 'traditional': 3}",8964,,541753,61,survey-likert,
86,All,,0.0-4.0-58.0,,,,audio/NGN/NGN_08_N.mp3,543518,62,audio-keyboard-response,
86,All,,0.0-4.0-59.0,"[0, 1, 2, 3, 4, 5]","{'local': 3, 'casual': 2, 'educated': 2, 'friendly': 2, 'dependable': 3, 'traditional': 2}",9387,,552907,63,survey-likert,
86,All,[],0.0-5.0,,"{'age': '44', 'P0_Q0': None, 'gender': '男', 'origin': 'Hong Kong', 'education': '大专'}",30542,,583487,64,survey,
86,All,,0.0-6.0,,"{'lang1': 'English', 'lang2': 'Cantonese', 'lang3': 'Mandarin', 'lang4': '', 'lang5': ''}",25786,,609275,65,survey-html-form,
86,All,,0.0-7.0,"[2, 1, 0]","{'family': 5, 'friends': 3, 'study/work': 0}",17913,,627190,66,survey-likert,
86,All,,0.0-8.0,"[0, 3, 2, 1]","{'likert_young': 3, 'likert_proper': 3, 'likert_culture': 3, 'likert_identity': 3}",23592,,650784,67,survey-likert,
86,All,[],0.0-9.0,,"{'attitude': 'none', 'have_heard': '是'}",78974,,729766,68,survey,
86,All,,0.0-10.0,,0,2137,"
            <p>感谢您完成本次实验！</p>
            <p>请按""提交""按钮正式完成本实验。提交后请您稍等片刻，在您回到Prolific网站后就可以关闭窗口。</p>
      ",731905,69,html-button-response,
101,All,,0.0-0.0,,0,17660,"<p style=""width: 1000px; margin-bottom: -250px"">
    您被邀请参加一项斯坦福大学的研究。
    <BR><BR>在此实验中，您会完成一项跟语言有关的任务，例如读或听一些字、描述图片或场景、造句、或完成简单的语言游戏。
    <BR><BR>本研究中没有已知的风险、成本或不适。
    <BR><BR>
    如果您同意参与这项研究，请继续。
    <BR><BR>
    <BR><BR>
    </p>
    <p style=""width: 1000px; font-size: 9pt; position: relative; top: 330px; padding-bottom: 30px; text-align: justify"">
    如果您已读完此表格并决定参与此项目，请明白您的参与是自愿的，您有权随时撤回您的同意或停止参与，而不会受到惩罚或失去您原本可以享有的利益有权。 您有权拒绝回答任何问题。 您的个人隐私将在研究产生的所有已发布和书面数据中得到保护。
    <BR><BR>联系信息：问题、疑虑或投诉：如果您对本研究、其程序、风险和益处有任何问题、疑虑或投诉，请用邮箱联系Ting Lin(linting@stanford.edu)或者Judith Degen教授(jdegen@stanford.edu)。如果您对这项研究的进行方式不满意，或者如果您对研究或您作为参与者的权利有任何疑虑、投诉或一般问题，请联系斯坦福机构审查委员会 (IRB) 发言与独立于研究团队的人联系 +1(650)-723-2480 或拨打免费电话 1-866-680-2906。 您也可以致函 Stanford IRB, Stanford University, Stanford, CA 94305-5401 或发送电子邮件至 irbnonmed@stanford.edu。
    </p>",17677,0,html-button-response,
101,All,,0.0-1.0,,0,7767,"
            <p>本研究的调查对象为母语为粤语的人。您可以将此链接分享给其他符合条件的人，但请不要多次参与本研究，您只会获得一次酬劳。</p>
            <p>本实验使用简体中文，将用时大约15分钟，完成后您将按公布的标准获得酬劳。</p>
            <p>请点击 ""继续""。</p>",25447,1,html-button-response,
101,All,,0.0-2.0,,0,2941,"
            <p>请确保您在安静的房间中用电脑完成本实验。</p>
            <p>在本实验中，您将聆听简短的音频片段，每段音频都是一名志愿者朗读的一个语段。</p>
            <p>听完每段音频后，您需要回答一些判断题。</p>",28390,2,html-button-response,
101,All,,0.0-3.0,,0,10630,"<p>实验开始前，请调整音量，确保您可以非常清楚地听到以下音频。</p>
    <p><audio controls><source src=""./audio/soundcheck.mp3"" type=""audio/mp3""></audio></p>
    <br><p>此外，以下音频将于实验过程中会出现数次，请遵守音频中的指示，<br>那一轮的每一道判断题<b>都请选择音频中的数字</b>。</p>
    <p><audio controls><source src=""./audio/attention_check_1.mp3"" type=""audio/mp3""></audio></p",39023,3,html-button-response,
101,All,,0.0-4.0-0.0,,,,audio/attention_check_6.mp3,42005,4,audio-keyboard-response,
101,All,,0.0-4.0-1.0,"[0, 1, 2, 3, 4, 5]","{'local': 5, 'casual': 5, 'educated': 5, 'friendly': 5, 'dependable': 5, 'traditional': 5}",12169,,54178,5,survey-likert,
101,All,,0.0-4.0-2.0,,,,audio/NGG/NGG_05_G.mp3,55437,6,audio-keyboard-response,
101,All,,0.0-4.0-3.0,"[0, 1, 2, 3, 4, 5]","{'local': 2, 'casual': 4, 'educated': 1, 'friendly': 2, 'dependable': 2, 'traditional': 3}",18670,,74109,7,survey-likert,
101,All,,0.0-4.0-4.0,,,,audio/NGG/NGG_08_NG.mp3,75598,8,audio-keyboard-response,
101,All,,0.0-4.0-5.0,"[0, 1, 2, 3, 4, 5]","{'local': 1, 'casual': 2, 'educated': 3, 'friendly': 3, 'dependable': 2, 'traditional': 3}",19196,,94798,9,survey-likert,
101,All,,0.0-4.0-6.0,,,,audio/NGN/NGN_09_N.mp3,96380,10,audio-keyboard-response,
101,All,,0.0-4.0-7.0,"[0, 1, 2, 3, 4, 5]","{'local': 2, 'casual': 1, 'educated': 4, 'friendly': 2, 'dependable': 2, 'traditional': 4}",16119,,112503,11,survey-likert,
101,All,,0.0-4.0-8.0,,,,audio/attention_check_4.mp3,115734,12,audio-keyboard-response,
101,All,,0.0-4.0-9.0,"[0, 1, 2, 3, 4, 5]","{'local': 3, 'casual': 3, 'educated': 3, 'friendly': 3, 'dependable': 3, 'traditional': 3}",6565,,122302,13,survey-likert,
101,All,,0.0-4.0-10.0,,,,audio/NGG/NGG_02_G.mp3,123489,14,audio-keyboard-response,
101,All,,0.0-4.0-11.0,"[0, 1, 2, 3, 4, 5]","{'local': 4, 'casual': 4, 'educated': 2, 'friendly': 3, 'dependable': 3, 'traditional': 1}",15822,,139315,15,survey-likert,
101,All,,0.0-4.0-12.0,,,,audio/NL/NL_04_L.mp3,140514,16,audio-keyboard-response,
101,All,,0.0-4.0-13.0,"[0, 1, 2, 3, 4, 5]","{'local': 4, 'casual': 3, 'educated': 2, 'friendly': 3, 'dependable': 3, 'traditional': 2}",13879,,154395,17,survey-likert,
101,All,,0.0-4.0-14.0,,,,audio/NGN/NGN_03_N.mp3,155828,18,audio-keyboard-response,
101,All,,0.0-4.0-15.0,"[0, 1, 2, 3, 4, 5]","{'local': 3, 'casual': 4, 'educated': 2, 'friendly': 4, 'dependable': 3, 'traditional': 1}",13945,,169777,19,survey-likert,
101,All,,0.0-4.0-16.0,,,,audio/attention_check_1.mp3,172703,20,audio-keyboard-response,
101,All,,0.0-4.0-17.0,"[0, 1, 2, 3, 4, 5]","{'local': 0, 'casual': 0, 'educated': 0, 'friendly': 0, 'dependable': 0, 'traditional': 0}",7163,,179869,21,survey-likert,
101,All,,0.0-4.0-18.0,,,,audio/NL/NL_08_N.mp3,181637,22,audio-keyboard-response,
101,All,,0.0-4.0-19.0,"[0, 1, 2, 3, 4, 5]","{'local': 1, 'casual': 1, 'educated': 3, 'friendly': 2, 'dependable': 2, 'traditional': 4}",11902,,193543,23,survey-likert,
101,All,,0.0-4.0-20.0,,,,audio/NL/NL_06_N.mp3,194524,24,audio-keyboard-response,
101,All,,0.0-4.0-21.0,"[0, 1, 2, 3, 4, 5]","{'local': 3, 'casual': 2, 'educated': 3, 'friendly': 2, 'dependable': 2, 'traditional': 3}",14039,,208567,25,survey-likert,
101,All,,0.0-4.0-22.0,,,,audio/NGN/NGN_04_NG.mp3,210459,26,audio-keyboard-response,
101,All,,0.0-4.0-23.0,"[0, 1, 2, 3, 4, 5]","{'local': 4, 'casual': 4, 'educated': 2, 'friendly': 2, 'dependable': 3, 'traditional': 1}",8731,,219194,27,survey-likert,
101,All,,0.0-4.0-24.0,,,,audio/NGN/NGN_01_N.mp3,221100,28,audio-keyboard-response,
101,All,,0.0-4.0-25.0,"[0, 1, 2, 3, 4, 5]","{'local': 2, 'casual': 3, 'educated': 3, 'friendly': 2, 'dependable': 3, 'traditional': 4}",15117,,236221,29,survey-likert,
101,All,,0.0-4.0-26.0,,,,audio/NL/NL_10_N.mp3,237835,30,audio-keyboard-response,
101,All,,0.0-4.0-27.0,"[0, 1, 2, 3, 4, 5]","{'local': 4, 'casual': 4, 'educated': 1, 'friendly': 2, 'dependable': 2, 'traditional': 1}",14735,,252574,31,survey-likert,
101,All,,0.0-4.0-28.0,,,,audio/NL/NL_07_N.mp3,254083,32,audio-keyboard-response,
101,All,,0.0-4.0-29.0,"[0, 1, 2, 3, 4, 5]","{'local': 3, 'casual': 4, 'educated': 1, 'friendly': 2, 'dependable': 2, 'traditional': 1}",11483,,265570,33,survey-likert,
101,All,,0.0-4.0-30.0,,,,audio/NGG/NGG_06_NG.mp3,266988,34,audio-keyboard-response,
101,All,,0.0-4.0-31.0,"[0, 1, 2, 3, 4, 5]","{'local': 3, 'casual': 3, 'educated': 2, 'friendly': 3, 'dependable': 3, 'traditional': 4}",11215,,278207,35,survey-likert,
101,All,,0.0-4.0-32.0,,,,audio/NGN/NGN_10_NG.mp3,279382,36,audio-keyboard-response,
101,All,,0.0-4.0-33.0,"[0, 1, 2, 3, 4, 5]","{'local': 2, 'casual': 2, 'educated': 2, 'friendly': 2, 'dependable': 2, 'traditional': 4}",8732,,288117,37,survey-likert,
101,All,,0.0-4.0-34.0,,,,audio/NGG/NGG_03_G.mp3,289471,38,audio-keyboard-response,
101,All,,0.0-4.0-35.0,"[0, 1, 2, 3, 4, 5]","{'local': 4, 'casual': 4, 'educated': 2, 'friendly': 3, 'dependable': 2, 'traditional': 2}",12387,,301861,39,survey-likert,
101,All,,0.0-4.0-36.0,,,,audio/NGG/NGG_09_G.mp3,304169,40,audio-keyboard-response,
101,All,,0.0-4.0-37.0,"[0, 1, 2, 3, 4, 5]","{'local': 0, 'casual': 5, 'educated': 0, 'friendly': 0, 'dependable': 0, 'traditional': 0}",25697,,329869,41,survey-likert,
101,All,,0.0-4.0-38.0,,,,audio/NL/NL_09_L.mp3,331150,42,audio-keyboard-response,
101,All,,0.0-4.0-39.0,"[0, 1, 2, 3, 4, 5]","{'local': 3, 'casual': 3, 'educated': 2, 'friendly': 2, 'dependable': 2, 'traditional': 3}",10685,,341839,43,survey-likert,
101,All,,0.0-4.0-40.0,,,,audio/NL/NL_02_N.mp3,342952,44,audio-keyboard-response,
101,All,,0.0-4.0-41.0,"[0, 1, 2, 3, 4, 5]","{'local': 4, 'casual': 4, 'educated': 1, 'friendly': 2, 'dependable': 3, 'traditional': 1}",11840,,354795,45,survey-likert,
101,All,,0.0-4.0-42.0,,,,audio/NGG/NGG_04_G.mp3,355920,46,audio-keyboard-response,
101,All,,0.0-4.0-43.0,"[0, 1, 2, 3, 4, 5]","{'local': 4, 'casual': 4, 'educated': 1, 'friendly': 3, 'dependable': 3, 'traditional': 1}",9775,,365699,47,survey-likert,
101,All,,0.0-4.0-44.0,,,,audio/NGG/NGG_10_G.mp3,367826,48,audio-keyboard-response,
101,All,,0.0-4.0-45.0,"[0, 1, 2, 3, 4, 5]","{'local': 3, 'casual': 2, 'educated': 1, 'friendly': 1, 'dependable': 2, 'traditional': 2}",12684,,380513,49,survey-likert,
101,All,,0.0-4.0-46.0,,,,audio/NGG/NGG_01_G.mp3,381886,50,audio-keyboard-response,
101,All,,0.0-4.0-47.0,"[0, 1, 2, 3, 4, 5]","{'local': 3, 'casual': 3, 'educated': 2, 'friendly': 1, 'dependable': 2, 'traditional': 2}",10508,,392398,51,survey-likert,
101,All,,0.0-4.0-48.0,,,,audio/NGN/NGN_02_N.mp3,393531,52,audio-keyboard-response,
101,All,,0.0-4.0-49.0,"[0, 1, 2, 3, 4, 5]","{'local': 4, 'casual': 4, 'educated': 2, 'friendly': 3, 'dependable': 3, 'traditional': 1}",9958,,403492,53,survey-likert,
101,All,,0.0-4.0-50.0,,,,audio/NL/NL_03_L.mp3,404624,54,audio-keyboard-response,
101,All,,0.0-4.0-51.0,"[0, 1, 2, 3, 4, 5]","{'local': 3, 'casual': 4, 'educated': 2, 'friendly': 2, 'dependable': 2, 'traditional': 1}",14977,,419605,55,survey-likert,
101,All,,0.0-4.0-52.0,,,,audio/NL/NL_01_L.mp3,421203,56,audio-keyboard-response,
101,All,,0.0-4.0-53.0,"[0, 1, 2, 3, 4, 5]","{'local': 4, 'casual': 4, 'educated': 3, 'friendly': 3, 'dependable': 3, 'traditional': 2}",10939,,432146,57,survey-likert,
101,All,,0.0-4.0-54.0,,,,audio/NGN/NGN_07_N.mp3,433980,58,audio-keyboard-response,
101,All,,0.0-4.0-55.0,"[0, 1, 2, 3, 4, 5]","{'local': 0, 'casual': 0, 'educated': 4, 'friendly': 1, 'dependable': 3, 'traditional': 5}",10283,,444267,59,survey-likert,
101,All,,0.0-4.0-56.0,,,,audio/NGN/NGN_08_NG.mp3,446002,60,audio-keyboard-response,
101,All,,0.0-4.0-57.0,"[0, 1, 2, 3, 4, 5]","{'local': 2, 'casual': 3, 'educated': 2, 'friendly': 2, 'dependable': 2, 'traditional': 3}",9126,,455131,61,survey-likert,
101,All,,0.0-4.0-58.0,,,,audio/NGN/NGN_05_N.mp3,456880,62,audio-keyboard-response,
101,All,,0.0-4.0-59.0,"[0, 1, 2, 3, 4, 5]","{'local': 1, 'casual': 1, 'educated': 4, 'friendly': 2, 'dependable': 2, 'traditional': 4}",11250,,468135,63,survey-likert,
101,All,[],0.0-5.0,,"{'age': '18', 'P0_Q0': None, 'gender': '女', 'origin': 'Hong Kong', 'education': '高中或中专'}",15923,,484092,64,survey,
101,All,,0.0-6.0,,"{'lang1': 'English', 'lang2': 'Cantonese', 'lang3': 'French', 'lang4': 'Mandarin', 'lang5': ''}",25603,,509697,65,survey-html-form,
101,All,,0.0-7.0,"[0, 1, 2]","{'family': 3, 'friends': 0, 'study/work': 0}",9188,,518889,66,survey-likert,
101,All,,0.0-8.0,"[0, 1, 2, 3]","{'likert_young': 4, 'likert_proper': 5, 'likert_culture': 4, 'likert_identity': 4}",8632,,527526,67,survey-likert,
101,All,[],0.0-9.0,,"{'attitude': 'n/a', 'have_heard': '否'}",9526,,537063,68,survey,
101,All,,0.0-10.0,,0,1667,"
            <p>感谢您完成本次实验！</p>
            <p>请按""提交""按钮正式完成本实验。提交后请您稍等片刻，在您回到Prolific网站后就可以关闭窗口。</p>
      ",538732,69,html-button-response,
94,All,,0.0-0.0,,0,4073,"<p style=""width: 1000px; margin-bottom: -250px"">
    您被邀请参加一项斯坦福大学的研究。
    <BR><BR>在此实验中，您会完成一项跟语言有关的任务，例如读或听一些字、描述图片或场景、造句、或完成简单的语言游戏。
    <BR><BR>本研究中没有已知的风险、成本或不适。
    <BR><BR>
    如果您同意参与这项研究，请继续。
    <BR><BR>
    <BR><BR>
    </p>
    <p style=""width: 1000px; font-size: 9pt; position: relative; top: 330px; padding-bottom: 30px; text-align: justify"">
    如果您已读完此表格并决定参与此项目，请明白您的参与是自愿的，您有权随时撤回您的同意或停止参与，而不会受到惩罚或失去您原本可以享有的利益有权。 您有权拒绝回答任何问题。 您的个人隐私将在研究产生的所有已发布和书面数据中得到保护。
    <BR><BR>联系信息：问题、疑虑或投诉：如果您对本研究、其程序、风险和益处有任何问题、疑虑或投诉，请用邮箱联系Ting Lin(linting@stanford.edu)或者Judith Degen教授(jdegen@stanford.edu)。如果您对这项研究的进行方式不满意，或者如果您对研究或您作为参与者的权利有任何疑虑、投诉或一般问题，请联系斯坦福机构审查委员会 (IRB) 发言与独立于研究团队的人联系 +1(650)-723-2480 或拨打免费电话 1-866-680-2906。 您也可以致函 Stanford IRB, Stanford University, Stanford, CA 94305-5401 或发送电子邮件至 irbnonmed@stanford.edu。
    </p>",4112,0,html-button-response,
94,All,,0.0-1.0,,0,4528,"
            <p>本研究的调查对象为母语为粤语的人。您可以将此链接分享给其他符合条件的人，但请不要多次参与本研究，您只会获得一次酬劳。</p>
            <p>本实验使用简体中文，将用时大约15分钟，完成后您将按公布的标准获得酬劳。</p>
            <p>请点击 ""继续""。</p>",8641,1,html-button-response,
94,All,,0.0-2.0,,0,5357,"
            <p>请确保您在安静的房间中用电脑完成本实验。</p>
            <p>在本实验中，您将聆听简短的音频片段，每段音频都是一名志愿者朗读的一个语段。</p>
            <p>听完每段音频后，您需要回答一些判断题。</p>",13999,2,html-button-response,
94,All,,0.0-3.0,,0,13216,"<p>实验开始前，请调整音量，确保您可以非常清楚地听到以下音频。</p>
    <p><audio controls><source src=""./audio/soundcheck.mp3"" type=""audio/mp3""></audio></p>
    <br><p>此外，以下音频将于实验过程中会出现数次，请遵守音频中的指示，<br>那一轮的每一道判断题<b>都请选择音频中的数字</b>。</p>
    <p><audio controls><source src=""./audio/attention_check_1.mp3"" type=""audio/mp3""></audio></p",27219,3,html-button-response,
94,All,,0.0-4.0-0.0,,,,audio/NGG/NGG_10_G.mp3,29185,4,audio-keyboard-response,
94,All,,0.0-4.0-1.0,"[0, 1, 2, 3, 4, 5]","{'local': 2, 'casual': 3, 'educated': 2, 'friendly': 2, 'dependable': 3, 'traditional': 2}",33489,,62678,5,survey-likert,
94,All,,0.0-4.0-2.0,,,,audio/NL/NL_01_L.mp3,64391,6,audio-keyboard-response,
94,All,,0.0-4.0-3.0,"[0, 1, 2, 3, 4, 5]","{'local': 4, 'casual': 4, 'educated': 3, 'friendly': 4, 'dependable': 3, 'traditional': 2}",11603,,75999,7,survey-likert,
94,All,,0.0-4.0-4.0,,,,audio/NGN/NGN_08_N.mp3,77788,8,audio-keyboard-response,
94,All,,0.0-4.0-5.0,"[0, 1, 2, 3, 4, 5]","{'local': 3, 'casual': 4, 'educated': 2, 'friendly': 3, 'dependable': 3, 'traditional': 2}",15482,,93272,9,survey-likert,
94,All,,0.0-4.0-6.0,,,,audio/NGG/NGG_01_NG.mp3,94727,10,audio-keyboard-response,
94,All,,0.0-4.0-7.0,"[0, 1, 2, 3, 4, 5]","{'local': 3, 'casual': 3, 'educated': 2, 'friendly': 3, 'dependable': 2, 'traditional': 2}",15428,,110157,11,survey-likert,
94,All,,0.0-4.0-8.0,,,,audio/NGN/NGN_05_N.mp3,111921,12,audio-keyboard-response,
94,All,,0.0-4.0-9.0,"[0, 1, 2, 3, 4, 5]","{'local': 5, 'casual': 3, 'educated': 4, 'friendly': 4, 'dependable': 4, 'traditional': 3}",14536,,126460,13,survey-likert,
94,All,,0.0-4.0-10.0,,,,audio/NL/NL_02_N.mp3,127623,14,audio-keyboard-response,
94,All,,0.0-4.0-11.0,"[0, 1, 2, 3, 4, 5]","{'local': 5, 'casual': 5, 'educated': 3, 'friendly': 4, 'dependable': 2, 'traditional': 2}",11361,,138986,15,survey-likert,
94,All,,0.0-4.0-12.0,,,,audio/NL/NL_10_L.mp3,140393,16,audio-keyboard-response,
94,All,,0.0-4.0-13.0,"[0, 1, 2, 3, 4, 5]","{'local': 5, 'casual': 5, 'educated': 3, 'friendly': 5, 'dependable': 3, 'traditional': 2}",13101,,153497,17,survey-likert,
94,All,,0.0-4.0-14.0,,,,audio/NGG/NGG_04_G.mp3,154662,18,audio-keyboard-response,
94,All,,0.0-4.0-15.0,"[0, 1, 2, 3, 4, 5]","{'local': 5, 'casual': 5, 'educated': 3, 'friendly': 5, 'dependable': 3, 'traditional': 1}",10042,,164708,19,survey-likert,
94,All,,0.0-4.0-16.0,,,,audio/NGN/NGN_02_N.mp3,165865,20,audio-keyboard-response,
94,All,,0.0-4.0-17.0,"[0, 1, 2, 3, 4, 5]","{'local': 5, 'casual': 4, 'educated': 3, 'friendly': 4, 'dependable': 4, 'traditional': 2}",15354,,181222,21,survey-likert,
94,All,,0.0-4.0-18.0,,,,audio/NL/NL_07_N.mp3,182519,22,audio-keyboard-response,
94,All,,0.0-4.0-19.0,"[0, 1, 2, 3, 4, 5]","{'local': 5, 'casual': 4, 'educated': 3, 'friendly': 4, 'dependable': 3, 'traditional': 2}",12459,,194980,23,survey-likert,
94,All,,0.0-4.0-20.0,,,,audio/NGN/NGN_03_NG.mp3,196415,24,audio-keyboard-response,
94,All,,0.0-4.0-21.0,"[0, 1, 2, 3, 4, 5]","{'local': 1, 'casual': 4, 'educated': 1, 'friendly': 2, 'dependable': 2, 'traditional': 2}",16815,,213233,25,survey-likert,
94,All,,0.0-4.0-22.0,,,,audio/attention_check_4.mp3,216489,26,audio-keyboard-response,
94,All,,0.0-4.0-23.0,"[0, 1, 2, 3, 4, 5]","{'local': 3, 'casual': 3, 'educated': 3, 'friendly': 3, 'dependable': 3, 'traditional': 3}",12676,,229167,27,survey-likert,
94,All,,0.0-4.0-24.0,,,,audio/NGG/NGG_02_NG.mp3,230507,28,audio-keyboard-response,
94,All,,0.0-4.0-25.0,"[0, 1, 2, 3, 4, 5]","{'local': 3, 'casual': 3, 'educated': 3, 'friendly': 3, 'dependable': 3, 'traditional': 2}",12409,,242919,29,survey-likert,
94,All,,0.0-4.0-26.0,,,,audio/NGN/NGN_07_NG.mp3,244653,30,audio-keyboard-response,
94,All,,0.0-4.0-27.0,"[0, 1, 2, 3, 4, 5]","{'local': 3, 'casual': 2, 'educated': 4, 'friendly': 3, 'dependable': 3, 'traditional': 3}",15186,,259843,31,survey-likert,
94,All,,0.0-4.0-28.0,,,,audio/NL/NL_09_N.mp3,261168,32,audio-keyboard-response,
94,All,,0.0-4.0-29.0,"[0, 1, 2, 3, 4, 5]","{'local': 4, 'casual': 3, 'educated': 3, 'friendly': 4, 'dependable': 4, 'traditional': 2}",13713,,274884,33,survey-likert,
94,All,,0.0-4.0-30.0,,,,audio/attention_check_1.mp3,277834,34,audio-keyboard-response,
94,All,,0.0-4.0-31.0,"[0, 1, 2, 3, 4, 5]","{'local': 0, 'casual': 0, 'educated': 0, 'friendly': 0, 'dependable': 0, 'traditional': 0}",8230,,286067,35,survey-likert,
94,All,,0.0-4.0-32.0,,,,audio/NGG/NGG_03_NG.mp3,287649,36,audio-keyboard-response,
94,All,,0.0-4.0-33.0,"[0, 1, 2, 3, 4, 5]","{'local': 4, 'casual': 4, 'educated': 3, 'friendly': 4, 'dependable': 3, 'traditional': 2}",10827,,298479,37,survey-likert,
94,All,,0.0-4.0-34.0,,,,audio/NGG/NGG_08_G.mp3,299863,38,audio-keyboard-response,
94,All,,0.0-4.0-35.0,"[0, 1, 2, 3, 4, 5]","{'local': 4, 'casual': 3, 'educated': 3, 'friendly': 4, 'dependable': 4, 'traditional': 3}",15412,,315278,39,survey-likert,
94,All,,0.0-4.0-36.0,,,,audio/NGN/NGN_09_N.mp3,316952,40,audio-keyboard-response,
94,All,,0.0-4.0-37.0,"[0, 1, 2, 3, 4, 5]","{'local': 4, 'casual': 2, 'educated': 4, 'friendly': 4, 'dependable': 4, 'traditional': 3}",12199,,329153,41,survey-likert,
94,All,,0.0-4.0-38.0,,,,audio/NL/NL_08_L.mp3,330779,42,audio-keyboard-response,
94,All,,0.0-4.0-39.0,"[0, 1, 2, 3, 4, 5]","{'local': 5, 'casual': 1, 'educated': 5, 'friendly': 4, 'dependable': 5, 'traditional': 4}",11367,,342148,43,survey-likert,
94,All,,0.0-4.0-40.0,,,,audio/NL/NL_03_L.mp3,343300,44,audio-keyboard-response,
94,All,,0.0-4.0-41.0,"[0, 1, 2, 3, 4, 5]","{'local': 5, 'casual': 3, 'educated': 3, 'friendly': 4, 'dependable': 4, 'traditional': 2}",12401,,355704,45,survey-likert,
94,All,,0.0-4.0-42.0,,,,audio/NGN/NGN_04_NG.mp3,357667,46,audio-keyboard-response,
94,All,,0.0-4.0-43.0,"[0, 1, 2, 3, 4, 5]","{'local': 5, 'casual': 3, 'educated': 3, 'friendly': 4, 'dependable': 4, 'traditional': 2}",11257,,368927,47,survey-likert,
94,All,,0.0-4.0-44.0,,,,audio/NL/NL_06_N.mp3,369915,48,audio-keyboard-response,
94,All,,0.0-4.0-45.0,"[0, 1, 2, 3, 4, 5]","{'local': 3, 'casual': 1, 'educated': 4, 'friendly': 3, 'dependable': 3, 'traditional': 4}",15010,,384926,49,survey-likert,
94,All,,0.0-4.0-46.0,,,,audio/NGN/NGN_01_NG.mp3,387045,50,audio-keyboard-response,
94,All,,0.0-4.0-47.0,"[0, 1, 2, 3, 4, 5]","{'local': 3, 'casual': 2, 'educated': 4, 'friendly': 4, 'dependable': 4, 'traditional': 4}",14360,,401408,51,survey-likert,
94,All,,0.0-4.0-48.0,,,,audio/NGG/NGG_06_NG.mp3,402846,52,audio-keyboard-response,
94,All,,0.0-4.0-49.0,"[0, 1, 2, 3, 4, 5]","{'local': 3, 'casual': 2, 'educated': 3, 'friendly': 3, 'dependable': 3, 'traditional': 2}",14667,,417516,53,survey-likert,
94,All,,0.0-4.0-50.0,,,,audio/NL/NL_04_L.mp3,418698,54,audio-keyboard-response,
94,All,,0.0-4.0-51.0,"[0, 1, 2, 3, 4, 5]","{'local': 3, 'casual': 2, 'educated': 3, 'friendly': 3, 'dependable': 3, 'traditional': 2}",13735,,432435,55,survey-likert,
94,All,,0.0-4.0-52.0,,,,audio/NGG/NGG_05_NG.mp3,434128,56,audio-keyboard-response,
94,All,,0.0-4.0-53.0,"[0, 1, 2, 3, 4, 5]","{'local': 4, 'casual': 3, 'educated': 3, 'friendly': 4, 'dependable': 4, 'traditional': 2}",25846,,459976,57,survey-likert,
94,All,,0.0-4.0-54.0,,,,audio/attention_check_6.mp3,463007,58,audio-keyboard-response,
94,All,,0.0-4.0-55.0,"[0, 1, 2, 3, 4, 5]","{'local': 5, 'casual': 5, 'educated': 5, 'friendly': 5, 'dependable': 5, 'traditional': 5}",8341,,471351,59,survey-likert,
94,All,,0.0-4.0-56.0,,,,audio/NGN/NGN_10_NG.mp3,472538,60,audio-keyboard-response,
94,All,,0.0-4.0-57.0,"[0, 1, 2, 3, 4, 5]","{'local': 5, 'casual': 1, 'educated': 5, 'friendly': 4, 'dependable': 5, 'traditional': 3}",10282,,482823,61,survey-likert,
94,All,,0.0-4.0-58.0,,,,audio/NGG/NGG_09_NG.mp3,485634,62,audio-keyboard-response,
94,All,,0.0-4.0-59.0,"[0, 1, 2, 3, 4, 5]","{'local': 3, 'casual': 2, 'educated': 2, 'friendly': 2, 'dependable': 3, 'traditional': 2}",16457,,502093,63,survey-likert,
94,All,[],0.0-5.0,,"{'age': '34', 'P0_Q0': None, 'gender': '男', 'origin': '香港', 'education': '本科'}",25760,,527931,64,survey,
94,All,,0.0-6.0,,"{'lang1': 'Cantonese', 'lang2': 'Mandarian', 'lang3': 'English', 'lang4': '', 'lang5': ''}",26802,,554735,65,survey-html-form,
94,All,,0.0-7.0,"[0, 1, 2]","{'family': 5, 'friends': 5, 'study/work': 1}",10679,,565416,66,survey-likert,
94,All,,0.0-8.0,"[0, 2, 1, 3]","{'likert_young': 5, 'likert_proper': 0, 'likert_culture': 5, 'likert_identity': 5}",11583,,577003,67,survey-likert,
94,All,[],0.0-9.0,,"{'attitude': '', 'have_heard': '是'}",82686,,659703,68,survey,
94,All,,0.0-10.0,,0,2793,"
            <p>感谢您完成本次实验！</p>
            <p>请按""提交""按钮正式完成本实验。提交后请您稍等片刻，在您回到Prolific网站后就可以关闭窗口。</p>
      ",662498,69,html-button-response,
103,All,,0.0-0.0,,0,13139,"<p style=""width: 1000px; margin-bottom: -250px"">
    您被邀请参加一项斯坦福大学的研究。
    <BR><BR>在此实验中，您会完成一项跟语言有关的任务，例如读或听一些字、描述图片或场景、造句、或完成简单的语言游戏。
    <BR><BR>本研究中没有已知的风险、成本或不适。
    <BR><BR>
    如果您同意参与这项研究，请继续。
    <BR><BR>
    <BR><BR>
    </p>
    <p style=""width: 1000px; font-size: 9pt; position: relative; top: 330px; padding-bottom: 30px; text-align: justify"">
    如果您已读完此表格并决定参与此项目，请明白您的参与是自愿的，您有权随时撤回您的同意或停止参与，而不会受到惩罚或失去您原本可以享有的利益有权。 您有权拒绝回答任何问题。 您的个人隐私将在研究产生的所有已发布和书面数据中得到保护。
    <BR><BR>联系信息：问题、疑虑或投诉：如果您对本研究、其程序、风险和益处有任何问题、疑虑或投诉，请用邮箱联系Ting Lin(linting@stanford.edu)或者Judith Degen教授(jdegen@stanford.edu)。如果您对这项研究的进行方式不满意，或者如果您对研究或您作为参与者的权利有任何疑虑、投诉或一般问题，请联系斯坦福机构审查委员会 (IRB) 发言与独立于研究团队的人联系 +1(650)-723-2480 或拨打免费电话 1-866-680-2906。 您也可以致函 Stanford IRB, Stanford University, Stanford, CA 94305-5401 或发送电子邮件至 irbnonmed@stanford.edu。
    </p>",13164,0,html-button-response,
103,All,,0.0-1.0,,0,5244,"
            <p>本研究的调查对象为母语为粤语的人。您可以将此链接分享给其他符合条件的人，但请不要多次参与本研究，您只会获得一次酬劳。</p>
            <p>本实验使用简体中文，将用时大约15分钟，完成后您将按公布的标准获得酬劳。</p>
            <p>请点击 ""继续""。</p>",18410,1,html-button-response,
103,All,,0.0-2.0,,0,4678,"
            <p>请确保您在安静的房间中用电脑完成本实验。</p>
            <p>在本实验中，您将聆听简短的音频片段，每段音频都是一名志愿者朗读的一个语段。</p>
            <p>听完每段音频后，您需要回答一些判断题。</p>",23089,2,html-button-response,
103,All,,0.0-3.0,,0,25246,"<p>实验开始前，请调整音量，确保您可以非常清楚地听到以下音频。</p>
    <p><audio controls><source src=""./audio/soundcheck.mp3"" type=""audio/mp3""></audio></p>
    <br><p>此外，以下音频将于实验过程中会出现数次，请遵守音频中的指示，<br>那一轮的每一道判断题<b>都请选择音频中的数字</b>。</p>
    <p><audio controls><source src=""./audio/attention_check_1.mp3"" type=""audio/mp3""></audio></p",48338,3,html-button-response,
103,All,,0.0-4.0-0.0,,,,audio/NGG/NGG_01_NG.mp3,49763,4,audio-keyboard-response,
103,All,,0.0-4.0-1.0,"[0, 1, 2, 3, 4, 5]","{'local': 3, 'casual': 3, 'educated': 3, 'friendly': 3, 'dependable': 3, 'traditional': 3}",23194,,72958,5,survey-likert,
103,All,,0.0-4.0-2.0,,,,audio/NGN/NGN_07_NG.mp3,74664,6,audio-keyboard-response,
103,All,,0.0-4.0-3.0,"[0, 1, 2, 3, 4, 5]","{'local': 2, 'casual': 3, 'educated': 3, 'friendly': 3, 'dependable': 3, 'traditional': 3}",13277,,87944,7,survey-likert,
103,All,,0.0-4.0-4.0,,,,audio/NL/NL_03_L.mp3,89093,8,audio-keyboard-response,
103,All,,0.0-4.0-5.0,"[0, 1, 2, 3, 4, 5]","{'local': 2, 'casual': 4, 'educated': 3, 'friendly': 3, 'dependable': 3, 'traditional': 3}",10626,,99722,9,survey-likert,
103,All,,0.0-4.0-6.0,,,,audio/NGG/NGG_09_G.mp3,102002,10,audio-keyboard-response,
103,All,,0.0-4.0-7.0,"[0, 1, 2, 3, 4, 5]","{'local': 1, 'casual': 2, 'educated': 2, 'friendly': 3, 'dependable': 2, 'traditional': 2}",12358,,114362,11,survey-likert,
103,All,,0.0-4.0-8.0,,,,audio/NL/NL_02_N.mp3,115474,12,audio-keyboard-response,
103,All,,0.0-4.0-9.0,"[0, 1, 2, 3, 4, 5]","{'local': 4, 'casual': 4, 'educated': 2, 'friendly': 4, 'dependable': 3, 'traditional': 3}",16898,,132375,13,survey-likert,
103,All,,0.0-4.0-10.0,,,,audio/NGN/NGN_01_N.mp3,134284,14,audio-keyboard-response,
103,All,,0.0-4.0-11.0,"[0, 1, 2, 3, 4, 5]","{'local': 1, 'casual': 3, 'educated': 3, 'friendly': 3, 'dependable': 2, 'traditional': 2}",14036,,148323,15,survey-likert,
103,All,,0.0-4.0-12.0,,,,audio/NGG/NGG_05_G.mp3,149603,16,audio-keyboard-response,
103,All,,0.0-4.0-13.0,"[0, 1, 2, 3, 4, 5]","{'local': 3, 'casual': 3, 'educated': 3, 'friendly': 3, 'dependable': 3, 'traditional': 3}",13310,,162915,17,survey-likert,
103,All,,0.0-4.0-14.0,,,,audio/NGG/NGG_08_NG.mp3,164424,18,audio-keyboard-response,
103,All,,0.0-4.0-15.0,"[0, 1, 2, 3, 4, 5]","{'local': 4, 'casual': 4, 'educated': 3, 'friendly': 3, 'dependable': 3, 'traditional': 3}",8737,,173164,19,survey-likert,
103,All,,0.0-4.0-16.0,,,,audio/attention_check_4.mp3,176403,20,audio-keyboard-response,
103,All,,0.0-4.0-17.0,"[0, 1, 2, 3, 4, 5]","{'local': 3, 'casual': 3, 'educated': 3, 'friendly': 3, 'dependable': 3, 'traditional': 3}",9016,,185420,21,survey-likert,
103,All,,0.0-4.0-18.0,,,,audio/NL/NL_09_L.mp3,186693,22,audio-keyboard-response,
103,All,,0.0-4.0-19.0,"[0, 1, 2, 3, 4, 5]","{'local': 4, 'casual': 4, 'educated': 3, 'friendly': 3, 'dependable': 3, 'traditional': 3}",8835,,195531,23,survey-likert,
103,All,,0.0-4.0-20.0,,,,audio/NGG/NGG_02_NG.mp3,196853,24,audio-keyboard-response,
103,All,,0.0-4.0-21.0,"[0, 1, 2, 3, 4, 5]","{'local': 4, 'casual': 3, 'educated': 3, 'friendly': 3, 'dependable': 3, 'traditional': 3}",12024,,208879,25,survey-likert,
103,All,,0.0-4.0-22.0,,,,audio/NGN/NGN_10_N.mp3,210343,26,audio-keyboard-response,
103,All,,0.0-4.0-23.0,"[0, 1, 2, 3, 4, 5]","{'local': 2, 'casual': 3, 'educated': 3, 'friendly': 3, 'dependable': 2, 'traditional': 2}",10889,,221236,27,survey-likert,
103,All,,0.0-4.0-24.0,,,,audio/attention_check_1.mp3,224152,28,audio-keyboard-response,
103,All,,0.0-4.0-25.0,"[0, 1, 2, 3, 4, 5]","{'local': 0, 'casual': 0, 'educated': 0, 'friendly': 0, 'dependable': 0, 'traditional': 0}",11233,,235387,29,survey-likert,
103,All,,0.0-4.0-26.0,,,,audio/NGN/NGN_02_N.mp3,236523,30,audio-keyboard-response,
103,All,,0.0-4.0-27.0,"[0, 1, 2, 3, 4, 5]","{'local': 4, 'casual': 4, 'educated': 3, 'friendly': 4, 'dependable': 4, 'traditional': 4}",9932,,246456,31,survey-likert,
103,All,,0.0-4.0-28.0,,,,audio/NL/NL_04_N.mp3,247394,32,audio-keyboard-response,
103,All,,0.0-4.0-29.0,"[0, 1, 2, 3, 4, 5]","{'local': 4, 'casual': 2, 'educated': 4, 'friendly': 3, 'dependable': 4, 'traditional': 4}",11373,,258769,33,survey-likert,
103,All,,0.0-4.0-30.0,,,,audio/NL/NL_06_N.mp3,259733,34,audio-keyboard-response,
103,All,,0.0-4.0-31.0,"[0, 1, 2, 3, 4, 5]","{'local': 2, 'casual': 3, 'educated': 3, 'friendly': 3, 'dependable': 3, 'traditional': 3}",9839,,269575,35,survey-likert,
103,All,,0.0-4.0-32.0,,,,audio/NL/NL_08_N.mp3,271333,36,audio-keyboard-response,
103,All,,0.0-4.0-33.0,"[0, 1, 2, 3, 4, 5]","{'local': 4, 'casual': 4, 'educated': 3, 'friendly': 3, 'dependable': 4, 'traditional': 3}",12671,,284007,37,survey-likert,
103,All,,0.0-4.0-34.0,,,,audio/NGG/NGG_04_G.mp3,285143,38,audio-keyboard-response,
103,All,,0.0-4.0-35.0,"[0, 1, 2, 3, 4, 5]","{'local': 3, 'casual': 5, 'educated': 2, 'friendly': 3, 'dependable': 3, 'traditional': 3}",9866,,295012,39,survey-likert,
103,All,,0.0-4.0-36.0,,,,audio/NGN/NGN_08_NG.mp3,296763,40,audio-keyboard-response,
103,All,,0.0-4.0-37.0,"[0, 1, 2, 3, 4, 5]","{'local': 2, 'casual': 3, 'educated': 3, 'friendly': 3, 'dependable': 3, 'traditional': 3}",9155,,305920,41,survey-likert,
103,All,,0.0-4.0-38.0,,,,audio/attention_check_6.mp3,308923,42,audio-keyboard-response,
103,All,,0.0-4.0-39.0,"[0, 1, 2, 3, 4, 5]","{'local': 5, 'casual': 5, 'educated': 5, 'friendly': 5, 'dependable': 5, 'traditional': 5}",10600,,319525,43,survey-likert,
103,All,,0.0-4.0-40.0,,,,audio/NL/NL_07_N.mp3,320803,44,audio-keyboard-response,
103,All,,0.0-4.0-41.0,"[0, 1, 2, 3, 4, 5]","{'local': 1, 'casual': 3, 'educated': 3, 'friendly': 3, 'dependable': 3, 'traditional': 2}",8077,,328883,45,survey-likert,
103,All,,0.0-4.0-42.0,,,,audio/NGN/NGN_09_N.mp3,330483,46,audio-keyboard-response,
103,All,,0.0-4.0-43.0,"[0, 1, 2, 3, 4, 5]","{'local': 3, 'casual': 3, 'educated': 4, 'friendly': 3, 'dependable': 3, 'traditional': 3}",18254,,348739,47,survey-likert,
103,All,,0.0-4.0-44.0,,,,audio/NL/NL_01_N.mp3,350637,48,audio-keyboard-response,
103,All,,0.0-4.0-45.0,"[0, 1, 2, 3, 4, 5]","{'local': 4, 'casual': 4, 'educated': 3, 'friendly': 3, 'dependable': 3, 'traditional': 3}",12272,,362912,49,survey-likert,
103,All,,0.0-4.0-46.0,,,,audio/NL/NL_10_N.mp3,364513,50,audio-keyboard-response,
103,All,,0.0-4.0-47.0,"[0, 1, 2, 3, 4, 5]","{'local': 2, 'casual': 3, 'educated': 3, 'friendly': 3, 'dependable': 3, 'traditional': 3}",10863,,375378,51,survey-likert,
103,All,,0.0-4.0-48.0,,,,audio/NGG/NGG_03_NG.mp3,376933,52,audio-keyboard-response,
103,All,,0.0-4.0-49.0,"[0, 1, 2, 3, 4, 5]","{'local': 2, 'casual': 4, 'educated': 3, 'friendly': 4, 'dependable': 3, 'traditional': 3}",10107,,387043,53,survey-likert,
103,All,,0.0-4.0-50.0,,,,audio/NGN/NGN_03_NG.mp3,388444,54,audio-keyboard-response,
103,All,,0.0-4.0-51.0,"[0, 1, 2, 3, 4, 5]","{'local': 2, 'casual': 3, 'educated': 3, 'friendly': 3, 'dependable': 3, 'traditional': 3}",7766,,396212,55,survey-likert,
103,All,,0.0-4.0-52.0,,,,audio/NGN/NGN_04_NG.mp3,398074,56,audio-keyboard-response,
103,All,,0.0-4.0-53.0,"[0, 1, 2, 3, 4, 5]","{'local': 3, 'casual': 4, 'educated': 3, 'friendly': 3, 'dependable': 3, 'traditional': 3}",7482,,405558,57,survey-likert,
103,All,,0.0-4.0-54.0,,,,audio/NGG/NGG_10_G.mp3,407432,58,audio-keyboard-response,
103,All,,0.0-4.0-55.0,"[0, 1, 2, 3, 4, 5]","{'local': 3, 'casual': 4, 'educated': 3, 'friendly': 2, 'dependable': 3, 'traditional': 3}",11683,,419117,59,survey-likert,
103,All,,0.0-4.0-56.0,,,,audio/NGG/NGG_06_NG.mp3,420522,60,audio-keyboard-response,
103,All,,0.0-4.0-57.0,"[0, 1, 2, 3, 4, 5]","{'local': 2, 'casual': 3, 'educated': 3, 'friendly': 4, 'dependable': 3, 'traditional': 3}",10035,,430558,61,survey-likert,
103,All,,0.0-4.0-58.0,,,,audio/NGN/NGN_05_NG.mp3,432483,62,audio-keyboard-response,
103,All,,0.0-4.0-59.0,"[0, 1, 2, 3, 4, 5]","{'local': 2, 'casual': 4, 'educated': 3, 'friendly': 3, 'dependable': 3, 'traditional': 3}",10038,,442524,63,survey-likert,
103,All,[],0.0-5.0,,"{'age': '29', 'P0_Q0': None, 'gender': '女', 'origin': '香港', 'education': '大专'}",61237,,503804,64,survey,
103,All,,0.0-6.0,,"{'lang1': '英语', 'lang2': '粤语', 'lang3': '', 'lang4': '', 'lang5': ''}",40057,,543863,65,survey-html-form,
103,All,,0.0-7.0,"[1, 2, 0]","{'family': 5, 'friends': 1, 'study/work': 0}",14917,,558782,66,survey-likert,
103,All,,0.0-8.0,"[1, 3, 0, 2]","{'likert_young': 5, 'likert_proper': 2, 'likert_culture': 5, 'likert_identity': 5}",15497,,574282,67,survey-likert,
103,All,[],0.0-9.0,,"{'attitude': '', 'have_heard': '是'}",12394,,586686,68,survey,
103,All,,0.0-10.0,,0,4393,"
            <p>感谢您完成本次实验！</p>
            <p>请按""提交""按钮正式完成本实验。提交后请您稍等片刻，在您回到Prolific网站后就可以关闭窗口。</p>
      ",591081,69,html-button-response,
107,All,,0.0-0.0,,0,1995,"<p style=""width: 1000px; margin-bottom: -250px"">
    您被邀请参加一项斯坦福大学的研究。
    <BR><BR>在此实验中，您会完成一项跟语言有关的任务，例如读或听一些字、描述图片或场景、造句、或完成简单的语言游戏。
    <BR><BR>本研究中没有已知的风险、成本或不适。
    <BR><BR>
    如果您同意参与这项研究，请继续。
    <BR><BR>
    <BR><BR>
    </p>
    <p style=""width: 1000px; font-size: 9pt; position: relative; top: 330px; padding-bottom: 30px; text-align: justify"">
    如果您已读完此表格并决定参与此项目，请明白您的参与是自愿的，您有权随时撤回您的同意或停止参与，而不会受到惩罚或失去您原本可以享有的利益有权。 您有权拒绝回答任何问题。 您的个人隐私将在研究产生的所有已发布和书面数据中得到保护。
    <BR><BR>联系信息：问题、疑虑或投诉：如果您对本研究、其程序、风险和益处有任何问题、疑虑或投诉，请用邮箱联系Ting Lin(linting@stanford.edu)或者Judith Degen教授(jdegen@stanford.edu)。如果您对这项研究的进行方式不满意，或者如果您对研究或您作为参与者的权利有任何疑虑、投诉或一般问题，请联系斯坦福机构审查委员会 (IRB) 发言与独立于研究团队的人联系 +1(650)-723-2480 或拨打免费电话 1-866-680-2906。 您也可以致函 Stanford IRB, Stanford University, Stanford, CA 94305-5401 或发送电子邮件至 irbnonmed@stanford.edu。
    </p>",2185,0,html-button-response,
107,All,,0.0-1.0,,0,1707,"
            <p>本研究的调查对象为母语为粤语的人。您可以将此链接分享给其他符合条件的人，但请不要多次参与本研究，您只会获得一次酬劳。</p>
            <p>本实验使用简体中文，将用时大约15分钟，完成后您将按公布的标准获得酬劳。</p>
            <p>请点击 ""继续""。</p>",3895,1,html-button-response,
107,All,,0.0-2.0,,0,1975,"
            <p>请确保您在安静的房间中用电脑完成本实验。</p>
            <p>在本实验中，您将聆听简短的音频片段，每段音频都是一名志愿者朗读的一个语段。</p>
            <p>听完每段音频后，您需要回答一些判断题。</p>",5872,2,html-button-response,
107,All,,0.0-3.0,,0,47607,"<p>实验开始前，请调整音量，确保您可以非常清楚地听到以下音频。</p>
    <p><audio controls><source src=""./audio/soundcheck.mp3"" type=""audio/mp3""></audio></p>
    <br><p>此外，以下音频将于实验过程中会出现数次，请遵守音频中的指示，<br>那一轮的每一道判断题<b>都请选择音频中的数字</b>。</p>
    <p><audio controls><source src=""./audio/attention_check_1.mp3"" type=""audio/mp3""></audio></p",53486,3,html-button-response,
107,All,,0.0-4.0-0.0,,,,audio/NL/NL_09_L.mp3,54801,4,audio-keyboard-response,
107,All,,0.0-4.0-1.0,"[0, 1, 2, 3, 4, 5]","{'local': 4, 'casual': 0, 'educated': 3, 'friendly': 2, 'dependable': 3, 'traditional': 4}",64993,,119800,5,survey-likert,
107,All,,0.0-4.0-2.0,,,,audio/NGG/NGG_01_G.mp3,121230,6,audio-keyboard-response,
107,All,,0.0-4.0-3.0,"[0, 1, 2, 3, 4, 5]","{'local': 4, 'casual': 1, 'educated': 3, 'friendly': 4, 'dependable': 4, 'traditional': 4}",16361,,137594,7,survey-likert,
107,All,,0.0-4.0-4.0,,,,audio/NGN/NGN_09_NG.mp3,139182,8,audio-keyboard-response,
107,All,,0.0-4.0-5.0,"[0, 1, 2, 3, 4, 5]","{'local': 1, 'casual': 2, 'educated': 3, 'friendly': 3, 'dependable': 2, 'traditional': 2}",25203,,164389,9,survey-likert,
107,All,,0.0-4.0-6.0,,,,audio/NGG/NGG_02_G.mp3,165582,10,audio-keyboard-response,
107,All,,0.0-4.0-7.0,"[0, 1, 2, 3, 4, 5]","{'local': 4, 'casual': 1, 'educated': 3, 'friendly': 3, 'dependable': 5, 'traditional': 3}",13738,,179322,11,survey-likert,
107,All,,0.0-4.0-8.0,,,,audio/NGN/NGN_04_NG.mp3,181161,12,audio-keyboard-response,
107,All,,0.0-4.0-9.0,"[0, 1, 2, 3, 4, 5]","{'local': 4, 'casual': 2, 'educated': 2, 'friendly': 3, 'dependable': 4, 'traditional': 2}",20638,,201802,13,survey-likert,
107,All,,0.0-4.0-10.0,,,,audio/NL/NL_01_L.mp3,203418,14,audio-keyboard-response,
107,All,,0.0-4.0-11.0,"[0, 1, 2, 3, 4, 5]","{'local': 1, 'casual': 1, 'educated': 3, 'friendly': 1, 'dependable': 2, 'traditional': 2}",16083,,219503,15,survey-likert,
107,All,,0.0-4.0-12.0,,,,audio/NGN/NGN_02_NG.mp3,221092,16,audio-keyboard-response,
107,All,,0.0-4.0-13.0,"[0, 1, 2, 3, 4, 5]","{'local': 4, 'casual': 1, 'educated': 4, 'friendly': 3, 'dependable': 5, 'traditional': 3}",15962,,237057,17,survey-likert,
107,All,,0.0-4.0-14.0,,,,audio/NL/NL_06_N.mp3,238031,18,audio-keyboard-response,
107,All,,0.0-4.0-15.0,"[0, 1, 2, 3, 4, 5]","{'local': 4, 'casual': 1, 'educated': 3, 'friendly': 4, 'dependable': 4, 'traditional': 1}",18281,,256315,19,survey-likert,
107,All,,0.0-4.0-16.0,,,,audio/NL/NL_07_L.mp3,257551,20,audio-keyboard-response,
107,All,,0.0-4.0-17.0,"[0, 1, 2, 3, 4, 5]","{'local': 4, 'casual': 1, 'educated': 4, 'friendly': 3, 'dependable': 5, 'traditional': 4}",11350,,268904,21,survey-likert,
107,All,,0.0-4.0-18.0,,,,audio/NGG/NGG_06_G.mp3,270368,22,audio-keyboard-response,
107,All,,0.0-4.0-19.0,"[0, 1, 2, 3, 4, 5]","{'local': 2, 'casual': 1, 'educated': 2, 'friendly': 3, 'dependable': 3, 'traditional': 4}",15925,,286295,23,survey-likert,
107,All,,0.0-4.0-20.0,,,,audio/NGG/NGG_09_G.mp3,288618,24,audio-keyboard-response,
107,All,,0.0-4.0-21.0,"[0, 1, 2, 3, 4, 5]","{'local': 0, 'casual': 5, 'educated': 1, 'friendly': 1, 'dependable': 1, 'traditional': 0}",15083,,303704,25,survey-likert,
107,All,,0.0-4.0-22.0,,,,audio/attention_check_6.mp3,306709,26,audio-keyboard-response,
107,All,,0.0-4.0-23.0,"[0, 1, 2, 3, 4, 5]","{'local': 5, 'casual': 5, 'educated': 5, 'friendly': 5, 'dependable': 5, 'traditional': 5}",9599,,316311,27,survey-likert,
107,All,,0.0-4.0-24.0,,,,audio/NGN/NGN_03_N.mp3,317744,28,audio-keyboard-response,
107,All,,0.0-4.0-25.0,"[0, 1, 2, 3, 4, 5]","{'local': 2, 'casual': 1, 'educated': 4, 'friendly': 4, 'dependable': 5, 'traditional': 2}",15251,,332998,29,survey-likert,
107,All,,0.0-4.0-26.0,,,,audio/NGN/NGN_10_N.mp3,334470,30,audio-keyboard-response,
107,All,,0.0-4.0-27.0,"[0, 1, 2, 3, 4, 5]","{'local': 1, 'casual': 4, 'educated': 2, 'friendly': 2, 'dependable': 2, 'traditional': 3}",24153,,358625,31,survey-likert,
107,All,,0.0-4.0-28.0,,,,audio/NGN/NGN_05_N.mp3,360374,32,audio-keyboard-response,
107,All,,0.0-4.0-29.0,"[0, 1, 2, 3, 4, 5]","{'local': 3, 'casual': 1, 'educated': 5, 'friendly': 4, 'dependable': 4, 'traditional': 2}",15254,,375630,33,survey-likert,
107,All,,0.0-4.0-30.0,,,,audio/NGN/NGN_07_NG.mp3,377398,34,audio-keyboard-response,
107,All,,0.0-4.0-31.0,"[0, 1, 2, 3, 4, 5]","{'local': 4, 'casual': 1, 'educated': 4, 'friendly': 4, 'dependable': 5, 'traditional': 3}",14766,,392167,35,survey-likert,
107,All,,0.0-4.0-32.0,,,,audio/NGG/NGG_03_NG.mp3,393750,36,audio-keyboard-response,
107,All,,0.0-4.0-33.0,"[0, 1, 2, 3, 4, 5]","{'local': 3, 'casual': 2, 'educated': 3, 'friendly': 1, 'dependable': 2, 'traditional': 2}",14638,,408391,37,survey-likert,
107,All,,0.0-4.0-34.0,,,,audio/NL/NL_04_N.mp3,409324,38,audio-keyboard-response,
107,All,,0.0-4.0-35.0,"[0, 1, 2, 3, 4, 5]","{'local': 2, 'casual': 1, 'educated': 2, 'friendly': 2, 'dependable': 2, 'traditional': 4}",14675,,424002,39,survey-likert,
107,All,,0.0-4.0-36.0,,,,audio/attention_check_4.mp3,427239,40,audio-keyboard-response,
107,All,,0.0-4.0-37.0,"[0, 1, 2, 3, 4, 5]","{'local': 3, 'casual': 3, 'educated': 3, 'friendly': 3, 'dependable': 3, 'traditional': 3}",8093,,435335,41,survey-likert,
107,All,,0.0-4.0-38.0,,,,audio/NGN/NGN_01_N.mp3,437255,42,audio-keyboard-response,
107,All,,0.0-4.0-39.0,"[0, 1, 2, 3, 4, 5]","{'local': 3, 'casual': 1, 'educated': 4, 'friendly': 3, 'dependable': 4, 'traditional': 3}",10109,,447367,43,survey-likert,
107,All,,0.0-4.0-40.0,,,,audio/NGG/NGG_08_NG.mp3,448882,44,audio-keyboard-response,
107,All,,0.0-4.0-41.0,"[0, 1, 2, 3, 4, 5]","{'local': 2, 'casual': 1, 'educated': 2, 'friendly': 3, 'dependable': 2, 'traditional': 2}",19308,,468193,45,survey-likert,
107,All,,0.0-4.0-42.0,,,,audio/NL/NL_02_L.mp3,469207,46,audio-keyboard-response,
107,All,,0.0-4.0-43.0,"[0, 1, 2, 3, 4, 5]","{'local': 2, 'casual': 1, 'educated': 3, 'friendly': 1, 'dependable': 3, 'traditional': 4}",11762,,480971,47,survey-likert,
107,All,,0.0-4.0-44.0,,,,audio/NL/NL_03_L.mp3,482119,48,audio-keyboard-response,
107,All,,0.0-4.0-45.0,"[0, 1, 2, 3, 4, 5]","{'local': 2, 'casual': 1, 'educated': 3, 'friendly': 3, 'dependable': 4, 'traditional': 3}",15848,,497970,49,survey-likert,
107,All,,0.0-4.0-46.0,,,,audio/NL/NL_10_L.mp3,499363,50,audio-keyboard-response,
107,All,,0.0-4.0-47.0,"[0, 1, 2, 3, 4, 5]","{'local': 3, 'casual': 1, 'educated': 4, 'friendly': 1, 'dependable': 4, 'traditional': 3}",15499,,514865,51,survey-likert,
107,All,,0.0-4.0-48.0,,,,audio/NGG/NGG_04_G.mp3,516013,52,audio-keyboard-response,
107,All,,0.0-4.0-49.0,"[0, 1, 2, 3, 4, 5]","{'local': 3, 'casual': 2, 'educated': 1, 'friendly': 0, 'dependable': 2, 'traditional': 3}",19985,,536000,53,survey-likert,
107,All,,0.0-4.0-50.0,,,,audio/NGG/NGG_05_G.mp3,537267,54,audio-keyboard-response,
107,All,,0.0-4.0-51.0,"[0, 1, 2, 3, 4, 5]","{'local': 2, 'casual': 1, 'educated': 2, 'friendly': 2, 'dependable': 3, 'traditional': 2}",18324,,555594,55,survey-likert,
107,All,,0.0-4.0-52.0,,,,audio/NL/NL_08_L.mp3,557230,56,audio-keyboard-response,
107,All,,0.0-4.0-53.0,"[0, 1, 2, 3, 4, 5]","{'local': 3, 'casual': 1, 'educated': 5, 'friendly': 1, 'dependable': 5, 'traditional': 4}",13843,,571076,57,survey-likert,
107,All,,0.0-4.0-54.0,,,,audio/attention_check_1.mp3,574024,58,audio-keyboard-response,
107,All,,0.0-4.0-55.0,"[0, 1, 2, 3, 4, 5]","{'local': 0, 'casual': 0, 'educated': 0, 'friendly': 0, 'dependable': 0, 'traditional': 0}",8090,,582117,59,survey-likert,
107,All,,0.0-4.0-56.0,,,,audio/NGN/NGN_08_NG.mp3,583865,60,audio-keyboard-response,
107,All,,0.0-4.0-57.0,"[0, 1, 2, 3, 4, 5]","{'local': 1, 'casual': 1, 'educated': 2, 'friendly': 1, 'dependable': 2, 'traditional': 4}",11524,,595391,61,survey-likert,
107,All,,0.0-4.0-58.0,,,,audio/NGG/NGG_10_NG.mp3,597732,62,audio-keyboard-response,
107,All,,0.0-4.0-59.0,"[0, 1, 2, 3, 4, 5]","{'local': 1, 'casual': 1, 'educated': 2, 'friendly': 0, 'dependable': 2, 'traditional': 3}",12446,,610181,63,survey-likert,
107,All,[],0.0-5.0,,"{'age': '22', 'P0_Q0': None, 'gender': '女', 'origin': '广州', 'education': '高中或中专'}",20473,,630740,64,survey,
107,All,,0.0-6.0,,"{'lang1': '普通话', 'lang2': '英语', 'lang3': '', 'lang4': '', 'lang5': ''}",32669,,663413,65,survey-html-form,
107,All,,0.0-7.0,"[0, 2, 1]","{'family': 5, 'friends': 1, 'study/work': 3}",25770,,689189,66,survey-likert,
107,All,,0.0-8.0,"[1, 0, 2, 3]","{'likert_young': 3, 'likert_proper': 3, 'likert_culture': 5, 'likert_identity': 3}",25597,,714795,67,survey-likert,
107,All,[],0.0-9.0,,"{'attitude': '?️', 'have_heard': '否'}",37036,,751858,68,survey,
107,All,,0.0-10.0,,0,1430,"
            <p>感谢您完成本次实验！</p>
            <p>请按""提交""按钮正式完成本实验。提交后请您稍等片刻，在您回到Prolific网站后就可以关闭窗口。</p>
      ",753290,69,html-button-response,
85,All,,0.0-0.0,,0,11687,"<p style=""width: 1000px; margin-bottom: -250px"">
    您被邀请参加一项斯坦福大学的研究。
    <BR><BR>在此实验中，您会完成一项跟语言有关的任务，例如读或听一些字、描述图片或场景、造句、或完成简单的语言游戏。
    <BR><BR>本研究中没有已知的风险、成本或不适。
    <BR><BR>
    如果您同意参与这项研究，请继续。
    <BR><BR>
    <BR><BR>
    </p>
    <p style=""width: 1000px; font-size: 9pt; position: relative; top: 330px; padding-bottom: 30px; text-align: justify"">
    如果您已读完此表格并决定参与此项目，请明白您的参与是自愿的，您有权随时撤回您的同意或停止参与，而不会受到惩罚或失去您原本可以享有的利益有权。 您有权拒绝回答任何问题。 您的个人隐私将在研究产生的所有已发布和书面数据中得到保护。
    <BR><BR>联系信息：问题、疑虑或投诉：如果您对本研究、其程序、风险和益处有任何问题、疑虑或投诉，请用邮箱联系Ting Lin(linting@stanford.edu)或者Judith Degen教授(jdegen@stanford.edu)。如果您对这项研究的进行方式不满意，或者如果您对研究或您作为参与者的权利有任何疑虑、投诉或一般问题，请联系斯坦福机构审查委员会 (IRB) 发言与独立于研究团队的人联系 +1(650)-723-2480 或拨打免费电话 1-866-680-2906。 您也可以致函 Stanford IRB, Stanford University, Stanford, CA 94305-5401 或发送电子邮件至 irbnonmed@stanford.edu。
    </p>",11807,0,html-button-response,
85,All,,0.0-1.0,,0,15634,"
            <p>本研究的调查对象为母语为粤语的人。您可以将此链接分享给其他符合条件的人，但请不要多次参与本研究，您只会获得一次酬劳。</p>
            <p>本实验使用简体中文，将用时大约15分钟，完成后您将按公布的标准获得酬劳。</p>
            <p>请点击 ""继续""。</p>",27443,1,html-button-response,
85,All,,0.0-2.0,,0,9869,"
            <p>请确保您在安静的房间中用电脑完成本实验。</p>
            <p>在本实验中，您将聆听简短的音频片段，每段音频都是一名志愿者朗读的一个语段。</p>
            <p>听完每段音频后，您需要回答一些判断题。</p>",37312,2,html-button-response,
85,All,,0.0-3.0,,0,93262,"<p>实验开始前，请调整音量，确保您可以非常清楚地听到以下音频。</p>
    <p><audio controls><source src=""./audio/soundcheck.mp3"" type=""audio/mp3""></audio></p>
    <br><p>此外，以下音频将于实验过程中会出现数次，请遵守音频中的指示，<br>那一轮的每一道判断题<b>都请选择音频中的数字</b>。</p>
    <p><audio controls><source src=""./audio/attention_check_1.mp3"" type=""audio/mp3""></audio></p",130580,3,html-button-response,
85,All,,0.0-4.0-0.0,,,,audio/NGN/NGN_05_NG.mp3,132781,4,audio-keyboard-response,
85,All,,0.0-4.0-1.0,"[0, 1, 2, 3, 4, 5]","{'local': 2, 'casual': 4, 'educated': 3, 'friendly': 1, 'dependable': 2, 'traditional': 3}",36940,,169725,5,survey-likert,
85,All,,0.0-4.0-2.0,,,,audio/NL/NL_07_N.mp3,171039,6,audio-keyboard-response,
85,All,,0.0-4.0-3.0,"[0, 1, 2, 3, 4, 5]","{'local': 2, 'casual': 1, 'educated': 5, 'friendly': 4, 'dependable': 5, 'traditional': 4}",26314,,197356,7,survey-likert,
85,All,,0.0-4.0-4.0,,,,audio/NGG/NGG_02_NG.mp3,198822,8,audio-keyboard-response,
85,All,,0.0-4.0-5.0,"[0, 1, 2, 3, 4, 5]","{'local': 3, 'casual': 2, 'educated': 4, 'friendly': 4, 'dependable': 4, 'traditional': 3}",30140,,228965,9,survey-likert,
85,All,,0.0-4.0-6.0,,,,audio/NGN/NGN_08_N.mp3,230740,10,audio-keyboard-response,
85,All,,0.0-4.0-7.0,"[0, 1, 2, 3, 4, 5]","{'local': 2, 'casual': 3, 'educated': 3, 'friendly': 2, 'dependable': 3, 'traditional': 2}",30182,,260926,11,survey-likert,
85,All,,0.0-4.0-8.0,,,,audio/NL/NL_06_L.mp3,262040,12,audio-keyboard-response,
85,All,,0.0-4.0-9.0,"[0, 1, 2, 3, 4, 5]","{'local': 3, 'casual': 3, 'educated': 3, 'friendly': 2, 'dependable': 3, 'traditional': 3}",21811,,283853,13,survey-likert,
85,All,,0.0-4.0-10.0,,,,audio/NL/NL_03_L.mp3,284987,14,audio-keyboard-response,
85,All,,0.0-4.0-11.0,"[0, 1, 2, 3, 4, 5]","{'local': 4, 'casual': 3, 'educated': 3, 'friendly': 4, 'dependable': 4, 'traditional': 2}",21952,,306941,15,survey-likert,
85,All,,0.0-4.0-12.0,,,,audio/NGN/NGN_07_NG.mp3,308759,16,audio-keyboard-response,
85,All,,0.0-4.0-13.0,"[0, 1, 2, 3, 4, 5]","{'local': 4, 'casual': 4, 'educated': 4, 'friendly': 4, 'dependable': 4, 'traditional': 3}",17738,,326499,17,survey-likert,
85,All,,0.0-4.0-14.0,,,,audio/NGN/NGN_04_NG.mp3,328316,18,audio-keyboard-response,
85,All,,0.0-4.0-15.0,"[0, 1, 2, 3, 4, 5]","{'local': 4, 'casual': 4, 'educated': 3, 'friendly': 3, 'dependable': 3, 'traditional': 3}",17539,,345857,19,survey-likert,
85,All,,0.0-4.0-16.0,,,,audio/NGN/NGN_10_N.mp3,347328,20,audio-keyboard-response,
85,All,,0.0-4.0-17.0,"[0, 1, 2, 3, 4, 5]","{'local': 4, 'casual': 3, 'educated': 4, 'friendly': 4, 'dependable': 4, 'traditional': 2}",16850,,364181,21,survey-likert,
85,All,,0.0-4.0-18.0,,,,audio/NGG/NGG_03_NG.mp3,365759,22,audio-keyboard-response,
85,All,,0.0-4.0-19.0,"[0, 1, 2, 3, 4, 5]","{'local': 4, 'casual': 4, 'educated': 3, 'friendly': 4, 'dependable': 4, 'traditional': 2}",27693,,393456,23,survey-likert,
85,All,,0.0-4.0-20.0,,,,audio/NL/NL_04_L.mp3,394651,24,audio-keyboard-response,
85,All,,0.0-4.0-21.0,"[0, 1, 2, 3, 4, 5]","{'local': 4, 'casual': 4, 'educated': 3, 'friendly': 4, 'dependable': 3, 'traditional': 2}",31467,,426121,25,survey-likert,
85,All,,0.0-4.0-22.0,,,,audio/NGN/NGN_09_N.mp3,427722,26,audio-keyboard-response,
85,All,,0.0-4.0-23.0,"[0, 1, 2, 3, 4, 5]","{'local': 3, 'casual': 2, 'educated': 4, 'friendly': 2, 'dependable': 4, 'traditional': 3}",19172,,446897,27,survey-likert,
85,All,,0.0-4.0-24.0,,,,audio/NGG/NGG_09_NG.mp3,449688,28,audio-keyboard-response,
85,All,,0.0-4.0-25.0,"[0, 1, 2, 3, 4, 5]","{'local': 4, 'casual': 3, 'educated': 4, 'friendly': 3, 'dependable': 4, 'traditional': 2}",17411,,467101,29,survey-likert,
85,All,,0.0-4.0-26.0,,,,audio/NL/NL_09_L.mp3,468386,30,audio-keyboard-response,
85,All,,0.0-4.0-27.0,"[0, 1, 2, 3, 4, 5]","{'local': 4, 'casual': 4, 'educated': 4, 'friendly': 4, 'dependable': 3, 'traditional': 2}",18619,,487007,31,survey-likert,
85,All,,0.0-4.0-28.0,,,,audio/attention_check_4.mp3,490527,32,audio-keyboard-response,
85,All,,0.0-4.0-29.0,"[0, 1, 2, 3, 4, 5]","{'local': 3, 'casual': 3, 'educated': 3, 'friendly': 3, 'dependable': 3, 'traditional': 3}",13203,,503732,33,survey-likert,
85,All,,0.0-4.0-30.0,,,,audio/attention_check_1.mp3,506816,34,audio-keyboard-response,
85,All,,0.0-4.0-31.0,"[0, 1, 2, 3, 4, 5]","{'local': 0, 'casual': 0, 'educated': 0, 'friendly': 0, 'dependable': 0, 'traditional': 0}",9686,,516503,35,survey-likert,
85,All,,0.0-4.0-32.0,,,,audio/NL/NL_10_L.mp3,517881,36,audio-keyboard-response,
85,All,,0.0-4.0-33.0,"[0, 1, 2, 3, 4, 5]","{'local': 4, 'casual': 4, 'educated': 3, 'friendly': 3, 'dependable': 3, 'traditional': 1}",18959,,536843,37,survey-likert,
85,All,,0.0-4.0-34.0,,,,audio/attention_check_6.mp3,540061,38,audio-keyboard-response,
85,All,,0.0-4.0-35.0,"[0, 1, 2, 3, 4, 5]","{'local': 5, 'casual': 5, 'educated': 5, 'friendly': 5, 'dependable': 5, 'traditional': 5}",8637,,548700,39,survey-likert,
85,All,,0.0-4.0-36.0,,,,audio/NGN/NGN_02_NG.mp3,550267,40,audio-keyboard-response,
85,All,,0.0-4.0-37.0,"[0, 1, 2, 3, 4, 5]","{'local': 3, 'casual': 3, 'educated': 4, 'friendly': 3, 'dependable': 4, 'traditional': 3}",14270,,564540,41,survey-likert,
85,All,,0.0-4.0-38.0,,,,audio/NGN/NGN_01_NG.mp3,566649,42,audio-keyboard-response,
85,All,,0.0-4.0-39.0,"[0, 1, 2, 3, 4, 5]","{'local': 2, 'casual': 3, 'educated': 2, 'friendly': 2, 'dependable': 3, 'traditional': 2}",22093,,588745,43,survey-likert,
85,All,,0.0-4.0-40.0,,,,audio/NL/NL_01_L.mp3,590368,44,audio-keyboard-response,
85,All,,0.0-4.0-41.0,"[0, 1, 2, 3, 4, 5]","{'local': 4, 'casual': 5, 'educated': 3, 'friendly': 3, 'dependable': 3, 'traditional': 1}",21713,,612085,45,survey-likert,
85,All,,0.0-4.0-42.0,,,,audio/NGG/NGG_01_G.mp3,613716,46,audio-keyboard-response,
85,All,,0.0-4.0-43.0,"[0, 1, 2, 3, 4, 5]","{'local': 4, 'casual': 4, 'educated': 3, 'friendly': 4, 'dependable': 3, 'traditional': 2}",16412,,630130,47,survey-likert,
85,All,,0.0-4.0-44.0,,,,audio/NGG/NGG_08_NG.mp3,631729,48,audio-keyboard-response,
85,All,,0.0-4.0-45.0,"[0, 1, 2, 3, 4, 5]","{'local': 4, 'casual': 4, 'educated': 3, 'friendly': 2, 'dependable': 3, 'traditional': 1}",17989,,649720,49,survey-likert,
85,All,,0.0-4.0-46.0,,,,audio/NGG/NGG_06_NG.mp3,651130,50,audio-keyboard-response,
85,All,,0.0-4.0-47.0,"[0, 1, 2, 3, 4, 5]","{'local': 4, 'casual': 3, 'educated': 3, 'friendly': 3, 'dependable': 4, 'traditional': 2}",18627,,669761,51,survey-likert,
85,All,,0.0-4.0-48.0,,,,audio/NGN/NGN_03_N.mp3,671175,52,audio-keyboard-response,
85,All,,0.0-4.0-49.0,"[0, 1, 2, 3, 4, 5]","{'local': 1, 'casual': 4, 'educated': 2, 'friendly': 3, 'dependable': 2, 'traditional': 1}",17921,,689098,53,survey-likert,
85,All,,0.0-4.0-50.0,,,,audio/NGG/NGG_05_G.mp3,690691,54,audio-keyboard-response,
85,All,,0.0-4.0-51.0,"[0, 1, 2, 3, 4, 5]","{'local': 4, 'casual': 4, 'educated': 3, 'friendly': 3, 'dependable': 3, 'traditional': 2}",17462,,708157,55,survey-likert,
85,All,,0.0-4.0-52.0,,,,audio/NL/NL_02_L.mp3,709163,56,audio-keyboard-response,
85,All,,0.0-4.0-53.0,"[0, 1, 2, 3, 4, 5]","{'local': 4, 'casual': 4, 'educated': 3, 'friendly': 3, 'dependable': 3, 'traditional': 1}",14699,,723865,57,survey-likert,
85,All,,0.0-4.0-54.0,,,,audio/NGG/NGG_04_NG.mp3,725301,58,audio-keyboard-response,
85,All,,0.0-4.0-55.0,"[0, 1, 2, 3, 4, 5]","{'local': 3, 'casual': 4, 'educated': 3, 'friendly': 3, 'dependable': 3, 'traditional': 2}",20549,,745853,59,survey-likert,
85,All,,0.0-4.0-56.0,,,,audio/NGG/NGG_10_G.mp3,747709,60,audio-keyboard-response,
85,All,,0.0-4.0-57.0,"[0, 1, 2, 3, 4, 5]","{'local': 4, 'casual': 4, 'educated': 3, 'friendly': 4, 'dependable': 3, 'traditional': 1}",15395,,763107,61,survey-likert,
85,All,,0.0-4.0-58.0,,,,audio/NL/NL_08_N.mp3,764903,62,audio-keyboard-response,
85,All,,0.0-4.0-59.0,"[0, 1, 2, 3, 4, 5]","{'local': 2, 'casual': 1, 'educated': 4, 'friendly': 4, 'dependable': 4, 'traditional': 4}",21995,,786901,63,survey-likert,
85,All,[],0.0-5.0,,"{'age': '41', 'P0_Q0': None, 'gender': '女', 'origin': '香港', 'education': '硕士'}",19284,,806276,64,survey,
85,All,,0.0-6.0,,"{'lang1': '英语', 'lang2': '粤语', 'lang3': '普通话', 'lang4': '', 'lang5': ''}",32208,,838487,65,survey-html-form,
85,All,,0.0-7.0,"[0, 2, 1]","{'family': 4, 'friends': 3, 'study/work': 0}",10748,,849237,66,survey-likert,
85,All,,0.0-8.0,"[1, 3, 2, 0]","{'likert_young': 4, 'likert_proper': 3, 'likert_culture': 5, 'likert_identity': 5}",24385,,873627,67,survey-likert,
85,All,[],0.0-9.0,,"{'attitude': '講粵語不應有懶音。用懶音給人懶惰或受低教育的感覺。', 'have_heard': '是'}",139585,,1013230,68,survey,
85,All,,0.0-10.0,,0,2056,"
            <p>感谢您完成本次实验！</p>
            <p>请按""提交""按钮正式完成本实验。提交后请您稍等片刻，在您回到Prolific网站后就可以关闭窗口。</p>
      ",1015287,69,html-button-response,
90,All,,0.0-0.0,,0,13654,"<p style=""width: 1000px; margin-bottom: -250px"">
    您被邀请参加一项斯坦福大学的研究。
    <BR><BR>在此实验中，您会完成一项跟语言有关的任务，例如读或听一些字、描述图片或场景、造句、或完成简单的语言游戏。
    <BR><BR>本研究中没有已知的风险、成本或不适。
    <BR><BR>
    如果您同意参与这项研究，请继续。
    <BR><BR>
    <BR><BR>
    </p>
    <p style=""width: 1000px; font-size: 9pt; position: relative; top: 330px; padding-bottom: 30px; text-align: justify"">
    如果您已读完此表格并决定参与此项目，请明白您的参与是自愿的，您有权随时撤回您的同意或停止参与，而不会受到惩罚或失去您原本可以享有的利益有权。 您有权拒绝回答任何问题。 您的个人隐私将在研究产生的所有已发布和书面数据中得到保护。
    <BR><BR>联系信息：问题、疑虑或投诉：如果您对本研究、其程序、风险和益处有任何问题、疑虑或投诉，请用邮箱联系Ting Lin(linting@stanford.edu)或者Judith Degen教授(jdegen@stanford.edu)。如果您对这项研究的进行方式不满意，或者如果您对研究或您作为参与者的权利有任何疑虑、投诉或一般问题，请联系斯坦福机构审查委员会 (IRB) 发言与独立于研究团队的人联系 +1(650)-723-2480 或拨打免费电话 1-866-680-2906。 您也可以致函 Stanford IRB, Stanford University, Stanford, CA 94305-5401 或发送电子邮件至 irbnonmed@stanford.edu。
    </p>",13687,0,html-button-response,
90,All,,0.0-1.0,,0,1471,"
            <p>本研究的调查对象为母语为粤语的人。您可以将此链接分享给其他符合条件的人，但请不要多次参与本研究，您只会获得一次酬劳。</p>
            <p>本实验使用简体中文，将用时大约15分钟，完成后您将按公布的标准获得酬劳。</p>
            <p>请点击 ""继续""。</p>",15159,1,html-button-response,
90,All,,0.0-2.0,,0,2752,"
            <p>请确保您在安静的房间中用电脑完成本实验。</p>
            <p>在本实验中，您将聆听简短的音频片段，每段音频都是一名志愿者朗读的一个语段。</p>
            <p>听完每段音频后，您需要回答一些判断题。</p>",17911,2,html-button-response,
90,All,,0.0-3.0,,0,30140,"<p>实验开始前，请调整音量，确保您可以非常清楚地听到以下音频。</p>
    <p><audio controls><source src=""./audio/soundcheck.mp3"" type=""audio/mp3""></audio></p>
    <br><p>此外，以下音频将于实验过程中会出现数次，请遵守音频中的指示，<br>那一轮的每一道判断题<b>都请选择音频中的数字</b>。</p>
    <p><audio controls><source src=""./audio/attention_check_1.mp3"" type=""audio/mp3""></audio></p",48053,3,html-button-response,
90,All,,0.0-4.0-0.0,,,,audio/NL/NL_07_L.mp3,49277,4,audio-keyboard-response,
90,All,,0.0-4.0-1.0,"[0, 1, 2, 3, 4, 5]","{'local': 3, 'casual': 5, 'educated': 3, 'friendly': 4, 'dependable': 3, 'traditional': 3}",20543,,69827,5,survey-likert,
90,All,,0.0-4.0-2.0,,,,audio/NGN/NGN_07_NG.mp3,71556,6,audio-keyboard-response,
90,All,,0.0-4.0-3.0,"[0, 1, 2, 3, 4, 5]","{'local': 2, 'casual': 1, 'educated': 4, 'friendly': 3, 'dependable': 3, 'traditional': 2}",17973,,89533,7,survey-likert,
90,All,,0.0-4.0-4.0,,,,audio/NL/NL_04_N.mp3,90457,8,audio-keyboard-response,
90,All,,0.0-4.0-5.0,"[0, 1, 2, 3, 4, 5]","{'local': 1, 'casual': 4, 'educated': 3, 'friendly': 2, 'dependable': 2, 'traditional': 3}",19924,,110385,9,survey-likert,
90,All,,0.0-4.0-6.0,,,,audio/NL/NL_03_N.mp3,111437,10,audio-keyboard-response,
90,All,,0.0-4.0-7.0,"[0, 1, 2, 3, 4, 5]","{'local': 3, 'casual': 5, 'educated': 3, 'friendly': 3, 'dependable': 3, 'traditional': 5}",15139,,126580,11,survey-likert,
90,All,,0.0-4.0-8.0,,,,audio/NGN/NGN_04_N.mp3,128356,12,audio-keyboard-response,
90,All,,0.0-4.0-9.0,"[0, 1, 2, 3, 4, 5]","{'local': 2, 'casual': 4, 'educated': 3, 'friendly': 3, 'dependable': 3, 'traditional': 4}",22793,,151152,13,survey-likert,
90,All,,0.0-4.0-10.0,,,,audio/NGG/NGG_03_G.mp3,152526,14,audio-keyboard-response,
90,All,,0.0-4.0-11.0,"[0, 1, 2, 3, 4, 5]","{'local': 2, 'casual': 2, 'educated': 3, 'friendly': 2, 'dependable': 3, 'traditional': 3}",22041,,174572,15,survey-likert,
90,All,,0.0-4.0-12.0,,,,audio/NL/NL_10_L.mp3,175966,16,audio-keyboard-response,
90,All,,0.0-4.0-13.0,"[0, 1, 2, 3, 4, 5]","{'local': 2, 'casual': 2, 'educated': 4, 'friendly': 3, 'dependable': 3, 'traditional': 4}",30760,,206730,17,survey-likert,
90,All,,0.0-4.0-14.0,,,,audio/NGN/NGN_02_NG.mp3,208295,18,audio-keyboard-response,
90,All,,0.0-4.0-15.0,"[0, 1, 2, 3, 4, 5]","{'local': 2, 'casual': 2, 'educated': 3, 'friendly': 4, 'dependable': 4, 'traditional': 4}",16498,,224797,19,survey-likert,
90,All,,0.0-4.0-16.0,,,,audio/NGN/NGN_09_NG.mp3,226395,20,audio-keyboard-response,
90,All,,0.0-4.0-17.0,"[0, 1, 2, 3, 4, 5]","{'local': 2, 'casual': 0, 'educated': 4, 'friendly': 3, 'dependable': 3, 'traditional': 1}",15168,,241568,21,survey-likert,
90,All,,0.0-4.0-18.0,,,,audio/NL/NL_09_N.mp3,242875,22,audio-keyboard-response,
90,All,,0.0-4.0-19.0,"[0, 1, 2, 3, 4, 5]","{'local': 1, 'casual': 3, 'educated': 3, 'friendly': 3, 'dependable': 3, 'traditional': 3}",11995,,254874,23,survey-likert,
90,All,,0.0-4.0-20.0,,,,audio/attention_check_4.mp3,258145,24,audio-keyboard-response,
90,All,,0.0-4.0-21.0,"[0, 1, 2, 3, 4, 5]","{'local': 3, 'casual': 3, 'educated': 3, 'friendly': 3, 'dependable': 3, 'traditional': 3}",8383,,266532,25,survey-likert,
90,All,,0.0-4.0-22.0,,,,audio/NGG/NGG_08_G.mp3,267935,26,audio-keyboard-response,
90,All,,0.0-4.0-23.0,"[0, 1, 2, 3, 4, 5]","{'local': 2, 'casual': 4, 'educated': 3, 'friendly': 4, 'dependable': 3, 'traditional': 5}",13628,,281567,27,survey-likert,
90,All,,0.0-4.0-24.0,,,,audio/NGN/NGN_01_N.mp3,283525,28,audio-keyboard-response,
90,All,,0.0-4.0-25.0,"[0, 1, 2, 3, 4, 5]","{'local': 1, 'casual': 0, 'educated': 4, 'friendly': 3, 'dependable': 3, 'traditional': 1}",15768,,299298,29,survey-likert,
90,All,,0.0-4.0-26.0,,,,audio/NGN/NGN_05_N.mp3,301185,30,audio-keyboard-response,
90,All,,0.0-4.0-27.0,"[0, 1, 2, 3, 4, 5]","{'local': 1, 'casual': 0, 'educated': 4, 'friendly': 3, 'dependable': 3, 'traditional': 2}",20633,,321822,31,survey-likert,
90,All,,0.0-4.0-28.0,,,,audio/attention_check_6.mp3,324835,32,audio-keyboard-response,
90,All,,0.0-4.0-29.0,"[0, 1, 2, 3, 4, 5]","{'local': 5, 'casual': 5, 'educated': 5, 'friendly': 5, 'dependable': 5, 'traditional': 5}",9977,,334816,33,survey-likert,
90,All,,0.0-4.0-30.0,,,,audio/NGG/NGG_06_NG.mp3,336245,34,audio-keyboard-response,
90,All,,0.0-4.0-31.0,"[0, 1, 2, 3, 4, 5]","{'local': 2, 'casual': 2, 'educated': 3, 'friendly': 2, 'dependable': 3, 'traditional': 3}",24964,,361213,35,survey-likert,
90,All,,0.0-4.0-32.0,,,,audio/NGG/NGG_04_NG.mp3,362655,36,audio-keyboard-response,
90,All,,0.0-4.0-33.0,"[0, 1, 2, 3, 4, 5]","{'local': 2, 'casual': 5, 'educated': 3, 'friendly': 4, 'dependable': 3, 'traditional': 5}",11381,,374040,37,survey-likert,
90,All,,0.0-4.0-34.0,,,,audio/NGN/NGN_03_NG.mp3,375455,38,audio-keyboard-response,
90,All,,0.0-4.0-35.0,"[0, 1, 2, 3, 4, 5]","{'local': 2, 'casual': 4, 'educated': 3, 'friendly': 3, 'dependable': 3, 'traditional': 4}",16480,,391938,39,survey-likert,
90,All,,0.0-4.0-36.0,,,,audio/NGG/NGG_02_G.mp3,393125,40,audio-keyboard-response,
90,All,,0.0-4.0-37.0,"[0, 1, 2, 3, 4, 5]","{'local': 3, 'casual': 4, 'educated': 3, 'friendly': 3, 'dependable': 3, 'traditional': 4}",17452,,410582,41,survey-likert,
90,All,,0.0-4.0-38.0,,,,audio/NGG/NGG_09_G.mp3,412905,42,audio-keyboard-response,
90,All,,0.0-4.0-39.0,"[0, 1, 2, 3, 4, 5]","{'local': 1, 'casual': 2, 'educated': 3, 'friendly': 2, 'dependable': 3, 'traditional': 3}",13268,,426177,43,survey-likert,
90,All,,0.0-4.0-40.0,,,,audio/NGG/NGG_05_NG.mp3,427845,44,audio-keyboard-response,
90,All,,0.0-4.0-41.0,"[0, 1, 2, 3, 4, 5]","{'local': 2, 'casual': 4, 'educated': 3, 'friendly': 3, 'dependable': 3, 'traditional': 4}",12890,,440739,45,survey-likert,
90,All,,0.0-4.0-42.0,,,,audio/NGG/NGG_01_NG.mp3,442195,46,audio-keyboard-response,
90,All,,0.0-4.0-43.0,"[0, 1, 2, 3, 4, 5]","{'local': 2, 'casual': 5, 'educated': 3, 'friendly': 3, 'dependable': 3, 'traditional': 4}",10695,,452893,47,survey-likert,
90,All,,0.0-4.0-44.0,,,,audio/NGN/NGN_10_N.mp3,454455,48,audio-keyboard-response,
90,All,,0.0-4.0-45.0,"[0, 1, 2, 3, 4, 5]","{'local': 1, 'casual': 1, 'educated': 4, 'friendly': 3, 'dependable': 3, 'traditional': 3}",13045,,467504,49,survey-likert,
90,All,,0.0-4.0-46.0,,,,audio/NGN/NGN_08_N.mp3,469315,50,audio-keyboard-response,
90,All,,0.0-4.0-47.0,"[0, 1, 2, 3, 4, 5]","{'local': 1, 'casual': 5, 'educated': 3, 'friendly': 3, 'dependable': 3, 'traditional': 4}",29159,,498475,51,survey-likert,
90,All,,0.0-4.0-48.0,,,,audio/NL/NL_02_L.mp3,499481,52,audio-keyboard-response,
90,All,,0.0-4.0-49.0,"[0, 1, 2, 3, 4, 5]","{'local': 3, 'casual': 5, 'educated': 3, 'friendly': 4, 'dependable': 3, 'traditional': 4}",21833,,521318,53,survey-likert,
90,All,,0.0-4.0-50.0,,,,audio/NGG/NGG_10_NG.mp3,523731,54,audio-keyboard-response,
90,All,,0.0-4.0-51.0,"[0, 1, 2, 3, 4, 5]","{'local': 1, 'casual': 4, 'educated': 2, 'friendly': 2, 'dependable': 3, 'traditional': 4}",12817,,536553,55,survey-likert,
90,All,,0.0-4.0-52.0,,,,audio/attention_check_1.mp3,539491,56,audio-keyboard-response,
90,All,,0.0-4.0-53.0,"[0, 1, 2, 3, 4, 5]","{'local': 0, 'casual': 0, 'educated': 0, 'friendly': 0, 'dependable': 0, 'traditional': 0}",7964,,547462,57,survey-likert,
90,All,,0.0-4.0-54.0,,,,audio/NL/NL_08_N.mp3,549285,58,audio-keyboard-response,
90,All,,0.0-4.0-55.0,"[0, 1, 2, 3, 4, 5]","{'local': 0, 'casual': 0, 'educated': 3, 'friendly': 2, 'dependable': 3, 'traditional': 3}",14288,,563577,59,survey-likert,
90,All,,0.0-4.0-56.0,,,,audio/NL/NL_01_L.mp3,565225,60,audio-keyboard-response,
90,All,,0.0-4.0-57.0,"[0, 1, 2, 3, 4, 5]","{'local': 2, 'casual': 5, 'educated': 3, 'friendly': 4, 'dependable': 3, 'traditional': 5}",12799,,578027,61,survey-likert,
90,All,,0.0-4.0-58.0,,,,audio/NL/NL_06_N.mp3,579015,62,audio-keyboard-response,
90,All,,0.0-4.0-59.0,"[0, 1, 2, 3, 4, 5]","{'local': 1, 'casual': 0, 'educated': 4, 'friendly': 2, 'dependable': 4, 'traditional': 2}",14644,,593662,63,survey-likert,
90,All,[],0.0-5.0,,"{'age': '47', 'P0_Q0': None, 'gender': '男', 'origin': '广州', 'education': '本科'}",15193,,608916,64,survey,
90,All,,0.0-6.0,,"{'lang1': '粤语', 'lang2': '普通话', 'lang3': '英语', 'lang4': '', 'lang5': ''}",21134,,630052,65,survey-html-form,
90,All,,0.0-7.0,"[1, 0, 2]","{'family': 5, 'friends': 3, 'study/work': 1}",25658,,655713,66,survey-likert,
